subject,trial.no,number,hand,RT,correct
nuerk_2005_001,1,7,left,645,1
nuerk_2005_001,2,1,left,404,1
nuerk_2005_001,3,5,left,504,1
nuerk_2005_001,4,4,right,491,1
nuerk_2005_001,5,3,left,603,1
nuerk_2005_001,6,9,left,1023,1
nuerk_2005_001,7,6,right,607,1
nuerk_2005_001,8,7,left,527,1
nuerk_2005_001,9,7,left,468,1
nuerk_2005_001,10,0,right,645,1
nuerk_2005_001,11,5,left,650,1
nuerk_2005_001,12,7,left,1006,1
nuerk_2005_001,13,6,right,551,1
nuerk_2005_001,14,4,right,490,1
nuerk_2005_001,15,3,left,486,1
nuerk_2005_001,16,8,right,508,1
nuerk_2005_001,17,6,right,674,1
nuerk_2005_001,18,9,left,522,0
nuerk_2005_001,19,0,right,822,1
nuerk_2005_001,20,4,right,621,1
nuerk_2005_001,21,4,right,532,1
nuerk_2005_001,22,2,right,621,1
nuerk_2005_001,23,9,left,602,1
nuerk_2005_001,24,8,right,562,1
nuerk_2005_001,25,7,left,575,1
nuerk_2005_001,26,5,left,577,1
nuerk_2005_001,27,0,right,629,1
nuerk_2005_001,28,9,left,644,1
nuerk_2005_001,29,2,right,434,1
nuerk_2005_001,30,4,right,565,1
nuerk_2005_001,31,0,right,490,0
nuerk_2005_001,32,1,left,616,1
nuerk_2005_001,33,0,right,1085,1
nuerk_2005_001,34,5,left,491,1
nuerk_2005_001,35,6,right,604,1
nuerk_2005_001,36,9,left,621,1
nuerk_2005_001,37,8,right,502,1
nuerk_2005_001,38,9,left,519,0
nuerk_2005_001,39,2,right,574,1
nuerk_2005_001,40,3,left,852,1
nuerk_2005_001,41,9,left,662,0
nuerk_2005_001,42,1,left,589,1
nuerk_2005_001,43,7,left,716,1
nuerk_2005_001,44,8,right,551,1
nuerk_2005_001,45,2,right,548,1
nuerk_2005_001,46,2,right,501,1
nuerk_2005_001,47,8,right,518,1
nuerk_2005_001,48,6,right,731,1
nuerk_2005_001,49,4,right,591,1
nuerk_2005_001,50,6,right,533,1
nuerk_2005_001,51,7,left,489,1
nuerk_2005_001,52,4,right,530,1
nuerk_2005_001,53,6,right,647,1
nuerk_2005_001,54,9,left,1018,1
nuerk_2005_001,55,7,left,642,1
nuerk_2005_001,56,0,right,1414,1
nuerk_2005_001,57,8,right,695,1
nuerk_2005_001,58,3,left,462,1
nuerk_2005_001,59,0,right,547,1
nuerk_2005_001,60,5,left,527,1
nuerk_2005_001,61,8,right,543,1
nuerk_2005_001,62,7,left,460,1
nuerk_2005_001,63,5,left,500,1
nuerk_2005_001,64,3,left,427,1
nuerk_2005_001,65,7,left,656,1
nuerk_2005_001,66,3,left,462,1
nuerk_2005_001,67,5,left,445,1
nuerk_2005_001,68,4,right,492,1
nuerk_2005_001,69,2,right,462,1
nuerk_2005_001,70,5,left,516,1
nuerk_2005_001,71,9,left,563,1
nuerk_2005_001,72,1,left,532,1
nuerk_2005_001,73,1,left,401,1
nuerk_2005_001,74,6,right,502,1
nuerk_2005_001,75,2,right,517,0
nuerk_2005_001,76,6,right,542,1
nuerk_2005_001,77,1,left,532,1
nuerk_2005_001,78,8,right,518,1
nuerk_2005_001,79,2,right,487,1
nuerk_2005_001,80,8,right,485,1
nuerk_2005_001,81,0,right,653,1
nuerk_2005_001,82,5,left,547,1
nuerk_2005_001,83,2,right,528,1
nuerk_2005_001,84,8,right,558,1
nuerk_2005_001,85,1,left,557,1
nuerk_2005_001,86,1,left,483,1
nuerk_2005_001,87,3,left,604,1
nuerk_2005_001,88,6,right,592,1
nuerk_2005_001,89,3,left,517,1
nuerk_2005_001,90,4,right,558,1
nuerk_2005_001,91,0,right,486,1
nuerk_2005_001,92,4,right,466,1
nuerk_2005_001,93,1,left,535,1
nuerk_2005_001,94,2,right,811,1
nuerk_2005_001,95,9,left,531,1
nuerk_2005_001,96,3,left,515,1
nuerk_2005_001,97,3,left,418,1
nuerk_2005_001,98,0,right,631,1
nuerk_2005_001,99,5,left,574,1
nuerk_2005_001,100,1,left,605,1
nuerk_2005_001,101,1,right,464,1
nuerk_2005_001,102,3,right,449,1
nuerk_2005_001,103,6,left,456,1
nuerk_2005_001,104,5,right,556,1
nuerk_2005_001,105,9,right,509,1
nuerk_2005_001,106,1,right,531,1
nuerk_2005_001,107,7,right,461,1
nuerk_2005_001,108,2,left,487,1
nuerk_2005_001,109,2,left,426,1
nuerk_2005_001,110,1,right,667,1
nuerk_2005_001,111,6,left,831,1
nuerk_2005_001,112,8,left,687,1
nuerk_2005_001,113,0,left,1424,1
nuerk_2005_001,114,2,left,592,1
nuerk_2005_001,115,2,left,399,1
nuerk_2005_001,116,8,left,456,1
nuerk_2005_001,117,1,right,599,1
nuerk_2005_001,118,3,right,734,1
nuerk_2005_001,119,8,left,491,1
nuerk_2005_001,120,5,right,762,1
nuerk_2005_001,121,5,right,405,1
nuerk_2005_001,122,0,left,564,1
nuerk_2005_001,123,0,left,416,1
nuerk_2005_001,124,6,left,708,1
nuerk_2005_001,125,3,right,485,1
nuerk_2005_001,126,6,left,563,1
nuerk_2005_001,127,8,left,521,0
nuerk_2005_001,128,3,right,1240,1
nuerk_2005_001,129,7,right,548,1
nuerk_2005_001,130,4,left,556,1
nuerk_2005_001,131,7,right,512,1
nuerk_2005_001,132,8,left,518,1
nuerk_2005_001,133,3,right,514,1
nuerk_2005_001,134,9,right,507,1
nuerk_2005_001,135,9,right,428,1
nuerk_2005_001,136,8,left,629,1
nuerk_2005_001,137,4,left,513,1
nuerk_2005_001,138,7,right,535,1
nuerk_2005_001,139,4,left,621,1
nuerk_2005_001,140,9,right,518,1
nuerk_2005_001,141,1,right,560,1
nuerk_2005_001,142,1,right,373,1
nuerk_2005_001,143,6,left,532,1
nuerk_2005_001,144,2,left,676,1
nuerk_2005_001,145,9,right,469,1
nuerk_2005_001,146,6,left,573,1
nuerk_2005_001,147,0,left,488,1
nuerk_2005_001,148,4,left,484,1
nuerk_2005_001,149,9,right,577,0
nuerk_2005_001,150,5,right,645,1
nuerk_2005_001,151,7,right,449,1
nuerk_2005_001,152,0,left,703,1
nuerk_2005_001,153,4,left,1240,1
nuerk_2005_001,154,0,left,456,1
nuerk_2005_001,155,3,right,543,1
nuerk_2005_001,156,1,right,535,1
nuerk_2005_001,157,3,right,437,1
nuerk_2005_001,158,8,left,483,1
nuerk_2005_001,159,4,left,591,1
nuerk_2005_001,160,9,right,474,1
nuerk_2005_001,161,4,left,591,1
nuerk_2005_001,162,0,left,559,1
nuerk_2005_001,163,0,left,412,1
nuerk_2005_001,164,5,right,447,1
nuerk_2005_001,165,2,left,527,1
nuerk_2005_001,166,5,right,456,1
nuerk_2005_001,167,4,left,464,1
nuerk_2005_001,168,2,left,621,0
nuerk_2005_001,169,9,right,620,1
nuerk_2005_001,170,7,right,546,1
nuerk_2005_001,171,9,right,586,1
nuerk_2005_001,172,4,left,623,1
nuerk_2005_001,173,0,left,604,1
nuerk_2005_001,174,3,right,637,1
nuerk_2005_001,175,3,right,384,1
nuerk_2005_001,176,2,left,520,1
nuerk_2005_001,177,7,right,415,1
nuerk_2005_001,178,6,left,621,1
nuerk_2005_001,179,7,right,441,1
nuerk_2005_001,180,8,left,603,1
nuerk_2005_001,181,2,left,967,1
nuerk_2005_001,182,1,right,600,1
nuerk_2005_001,183,8,left,385,1
nuerk_2005_001,184,0,left,462,1
nuerk_2005_001,185,6,left,488,1
nuerk_2005_001,186,5,right,500,1
nuerk_2005_001,187,8,left,516,1
nuerk_2005_001,188,5,right,523,1
nuerk_2005_001,189,7,right,621,1
nuerk_2005_001,190,6,left,848,1
nuerk_2005_001,191,2,left,616,0
nuerk_2005_001,192,5,right,601,1
nuerk_2005_001,193,5,right,418,1
nuerk_2005_001,194,7,right,1094,1
nuerk_2005_001,195,3,right,593,1
nuerk_2005_001,196,4,left,504,1
nuerk_2005_001,197,1,right,593,1
nuerk_2005_001,198,1,right,449,1
nuerk_2005_001,199,6,left,600,1
nuerk_2005_001,200,9,right,546,1
nuerk_2005_002,1,9,right,766,0
nuerk_2005_002,2,4,left,1087,0
nuerk_2005_002,3,3,right,1194,1
nuerk_2005_002,4,1,right,595,1
nuerk_2005_002,5,4,left,636,1
nuerk_2005_002,6,8,left,453,1
nuerk_2005_002,7,7,right,535,1
nuerk_2005_002,8,1,right,537,1
nuerk_2005_002,9,2,left,426,1
nuerk_2005_002,10,4,left,434,1
nuerk_2005_002,11,6,left,561,1
nuerk_2005_002,12,8,left,458,1
nuerk_2005_002,13,9,right,530,1
nuerk_2005_002,14,3,right,432,1
nuerk_2005_002,15,1,right,520,1
nuerk_2005_002,16,3,right,734,1
nuerk_2005_002,17,6,left,578,1
nuerk_2005_002,18,6,left,470,1
nuerk_2005_002,19,5,right,603,1
nuerk_2005_002,20,2,left,822,1
nuerk_2005_002,21,5,right,577,1
nuerk_2005_002,22,2,left,657,1
nuerk_2005_002,23,7,right,571,1
nuerk_2005_002,24,4,left,502,1
nuerk_2005_002,25,8,left,979,1
nuerk_2005_002,26,7,right,459,1
nuerk_2005_002,27,6,left,557,1
nuerk_2005_002,28,1,right,514,1
nuerk_2005_002,29,0,left,664,1
nuerk_2005_002,30,0,left,577,1
nuerk_2005_002,31,8,left,526,1
nuerk_2005_002,32,0,left,482,1
nuerk_2005_002,33,4,left,517,1
nuerk_2005_002,34,0,left,483,1
nuerk_2005_002,35,3,right,533,1
nuerk_2005_002,36,5,right,565,1
nuerk_2005_002,37,9,right,1086,1
nuerk_2005_002,38,7,right,442,1
nuerk_2005_002,39,7,right,520,1
nuerk_2005_002,40,9,right,618,1
nuerk_2005_002,41,5,right,473,1
nuerk_2005_002,42,3,right,463,1
nuerk_2005_002,43,9,right,433,1
nuerk_2005_002,44,8,left,577,1
nuerk_2005_002,45,0,left,511,1
nuerk_2005_002,46,6,left,587,1
nuerk_2005_002,47,2,left,483,1
nuerk_2005_002,48,3,right,491,1
nuerk_2005_002,49,4,left,545,1
nuerk_2005_002,50,1,right,941,1
nuerk_2005_002,51,5,right,461,1
nuerk_2005_002,52,8,left,546,1
nuerk_2005_002,53,9,right,696,1
nuerk_2005_002,54,5,right,523,1
nuerk_2005_002,55,1,right,1200,1
nuerk_2005_002,56,3,right,460,1
nuerk_2005_002,57,4,left,515,1
nuerk_2005_002,58,6,left,606,1
nuerk_2005_002,59,2,left,664,1
nuerk_2005_002,60,5,right,449,1
nuerk_2005_002,61,2,left,600,1
nuerk_2005_002,62,3,right,560,1
nuerk_2005_002,63,9,right,474,1
nuerk_2005_002,64,3,right,478,1
nuerk_2005_002,65,0,left,528,1
nuerk_2005_002,66,6,left,512,1
nuerk_2005_002,67,3,right,475,1
nuerk_2005_002,68,7,right,477,0
nuerk_2005_002,69,5,right,1105,1
nuerk_2005_002,70,1,right,595,1
nuerk_2005_002,71,8,left,418,1
nuerk_2005_002,72,1,right,515,1
nuerk_2005_002,73,8,left,506,1
nuerk_2005_002,74,7,right,623,1
nuerk_2005_002,75,2,left,475,1
nuerk_2005_002,76,6,left,823,1
nuerk_2005_002,77,6,left,474,1
nuerk_2005_002,78,4,left,721,1
nuerk_2005_002,79,4,left,458,1
nuerk_2005_002,80,0,left,584,1
nuerk_2005_002,81,5,right,449,1
nuerk_2005_002,82,9,right,501,1
nuerk_2005_002,83,5,right,403,1
nuerk_2005_002,84,1,right,492,1
nuerk_2005_002,85,8,left,488,1
nuerk_2005_002,86,9,right,500,1
nuerk_2005_002,87,0,left,645,1
nuerk_2005_002,88,4,left,520,1
nuerk_2005_002,89,6,left,427,1
nuerk_2005_002,90,2,left,540,1
nuerk_2005_002,91,1,right,401,1
nuerk_2005_002,92,7,right,576,1
nuerk_2005_002,93,7,right,451,1
nuerk_2005_002,94,0,left,472,1
nuerk_2005_002,95,2,left,516,1
nuerk_2005_002,96,9,right,884,1
nuerk_2005_002,97,8,left,548,1
nuerk_2005_002,98,0,left,642,1
nuerk_2005_002,99,7,right,590,1
nuerk_2005_002,100,2,left,544,1
nuerk_2005_002,101,5,left,457,1
nuerk_2005_002,102,5,left,382,1
nuerk_2005_002,103,3,left,501,1
nuerk_2005_002,104,6,right,548,1
nuerk_2005_002,105,5,left,412,1
nuerk_2005_002,106,9,left,432,0
nuerk_2005_002,107,6,right,520,1
nuerk_2005_002,108,8,right,576,1
nuerk_2005_002,109,8,right,423,1
nuerk_2005_002,110,4,right,463,1
nuerk_2005_002,111,9,left,519,1
nuerk_2005_002,112,0,right,587,1
nuerk_2005_002,113,7,left,614,1
nuerk_2005_002,114,1,left,577,1
nuerk_2005_002,115,6,right,528,1
nuerk_2005_002,116,5,left,1368,1
nuerk_2005_002,117,3,left,0,1
nuerk_2005_002,118,7,left,555,1
nuerk_2005_002,119,8,right,522,1
nuerk_2005_002,120,2,right,419,1
nuerk_2005_002,121,0,right,502,1
nuerk_2005_002,122,7,left,416,1
nuerk_2005_002,123,2,right,586,1
nuerk_2005_002,124,0,right,466,1
nuerk_2005_002,125,1,left,493,1
nuerk_2005_002,126,3,left,512,1
nuerk_2005_002,127,8,right,558,1
nuerk_2005_002,128,3,left,586,1
nuerk_2005_002,129,8,right,643,1
nuerk_2005_002,130,8,right,449,1
nuerk_2005_002,131,1,left,456,1
nuerk_2005_002,132,2,right,475,1
nuerk_2005_002,133,5,left,926,1
nuerk_2005_002,134,3,left,533,1
nuerk_2005_002,135,4,right,488,1
nuerk_2005_002,136,7,left,469,1
nuerk_2005_002,137,1,left,500,1
nuerk_2005_002,138,3,left,442,1
nuerk_2005_002,139,4,right,419,1
nuerk_2005_002,140,6,right,517,1
nuerk_2005_002,141,2,right,426,1
nuerk_2005_002,142,4,right,413,1
nuerk_2005_002,143,5,left,505,1
nuerk_2005_002,144,3,left,549,1
nuerk_2005_002,145,4,right,400,1
nuerk_2005_002,146,7,left,485,1
nuerk_2005_002,147,6,right,469,1
nuerk_2005_002,148,8,right,619,1
nuerk_2005_002,149,9,left,428,1
nuerk_2005_002,150,5,left,440,1
nuerk_2005_002,151,1,left,485,1
nuerk_2005_002,152,2,right,421,1
nuerk_2005_002,153,2,right,447,1
nuerk_2005_002,154,2,right,471,1
nuerk_2005_002,155,9,left,431,1
nuerk_2005_002,156,6,right,431,1
nuerk_2005_002,157,8,right,403,1
nuerk_2005_002,158,5,left,402,1
nuerk_2005_002,159,0,right,485,1
nuerk_2005_002,160,7,left,449,1
nuerk_2005_002,161,2,right,458,1
nuerk_2005_002,162,6,right,429,1
nuerk_2005_002,163,6,right,473,1
nuerk_2005_002,164,4,right,400,1
nuerk_2005_002,165,5,left,400,1
nuerk_2005_002,166,7,left,382,1
nuerk_2005_002,167,4,right,461,1
nuerk_2005_002,168,7,left,530,1
nuerk_2005_002,169,4,right,388,1
nuerk_2005_002,170,6,right,413,1
nuerk_2005_002,171,9,left,490,1
nuerk_2005_002,172,3,left,386,0
nuerk_2005_002,173,4,right,754,1
nuerk_2005_002,174,9,left,606,1
nuerk_2005_002,175,0,right,499,1
nuerk_2005_002,176,1,left,456,1
nuerk_2005_002,177,4,right,556,1
nuerk_2005_002,178,0,right,565,0
nuerk_2005_002,179,8,right,493,1
nuerk_2005_002,180,9,left,518,1
nuerk_2005_002,181,9,left,469,1
nuerk_2005_002,182,5,left,437,1
nuerk_2005_002,183,0,right,485,1
nuerk_2005_002,184,8,right,896,0
nuerk_2005_002,185,0,right,455,1
nuerk_2005_002,186,2,right,551,1
nuerk_2005_002,187,6,right,462,1
nuerk_2005_002,188,1,left,402,1
nuerk_2005_002,189,3,left,415,1
nuerk_2005_002,190,7,left,389,1
nuerk_2005_002,191,1,left,427,1
nuerk_2005_002,192,1,left,382,1
nuerk_2005_002,193,1,left,401,1
nuerk_2005_002,194,3,left,443,1
nuerk_2005_002,195,2,right,434,1
nuerk_2005_002,196,7,left,461,1
nuerk_2005_002,197,0,right,489,1
nuerk_2005_002,198,9,left,655,1
nuerk_2005_002,199,9,left,418,1
nuerk_2005_002,200,0,right,414,1
nuerk_2005_003,1,5,left,529,1
nuerk_2005_003,2,0,right,661,1
nuerk_2005_003,3,1,left,733,1
nuerk_2005_003,4,1,left,620,1
nuerk_2005_003,5,2,right,605,1
nuerk_2005_003,6,6,right,493,1
nuerk_2005_003,7,4,right,522,1
nuerk_2005_003,8,3,left,459,1
nuerk_2005_003,9,2,right,516,1
nuerk_2005_003,10,0,right,552,1
nuerk_2005_003,11,9,left,502,1
nuerk_2005_003,12,0,right,463,1
nuerk_2005_003,13,3,left,504,1
nuerk_2005_003,14,7,left,663,1
nuerk_2005_003,15,5,left,634,1
nuerk_2005_003,16,0,right,592,1
nuerk_2005_003,17,2,right,565,1
nuerk_2005_003,18,4,right,594,1
nuerk_2005_003,19,3,left,462,1
nuerk_2005_003,20,1,left,445,1
nuerk_2005_003,21,3,left,476,1
nuerk_2005_003,22,1,left,482,1
nuerk_2005_003,23,0,right,447,1
nuerk_2005_003,24,7,left,455,1
nuerk_2005_003,25,1,left,433,1
nuerk_2005_003,26,9,left,461,1
nuerk_2005_003,27,1,left,470,1
nuerk_2005_003,28,6,right,562,1
nuerk_2005_003,29,8,right,534,1
nuerk_2005_003,30,6,right,580,1
nuerk_2005_003,31,6,right,489,1
nuerk_2005_003,32,2,right,574,1
nuerk_2005_003,33,1,left,549,1
nuerk_2005_003,34,9,left,470,1
nuerk_2005_003,35,4,right,662,1
nuerk_2005_003,36,1,left,503,1
nuerk_2005_003,37,0,right,637,1
nuerk_2005_003,38,9,left,537,1
nuerk_2005_003,39,5,left,512,1
nuerk_2005_003,40,5,left,502,1
nuerk_2005_003,41,3,left,604,1
nuerk_2005_003,42,8,right,638,1
nuerk_2005_003,43,4,right,486,1
nuerk_2005_003,44,4,right,471,1
nuerk_2005_003,45,4,right,505,1
nuerk_2005_003,46,5,left,506,1
nuerk_2005_003,47,8,right,759,1
nuerk_2005_003,48,5,left,713,1
nuerk_2005_003,49,5,left,677,1
nuerk_2005_003,50,8,right,586,1
nuerk_2005_003,51,7,left,729,1
nuerk_2005_003,52,1,left,746,1
nuerk_2005_003,53,9,left,536,1
nuerk_2005_003,54,7,left,752,1
nuerk_2005_003,55,8,right,587,1
nuerk_2005_003,56,0,right,756,1
nuerk_2005_003,57,9,left,527,1
nuerk_2005_003,58,0,right,555,0
nuerk_2005_003,59,2,right,1126,1
nuerk_2005_003,60,7,left,512,1
nuerk_2005_003,61,7,left,517,1
nuerk_2005_003,62,6,right,514,1
nuerk_2005_003,63,4,right,535,1
nuerk_2005_003,64,3,left,585,1
nuerk_2005_003,65,8,right,490,0
nuerk_2005_003,66,8,right,749,1
nuerk_2005_003,67,0,right,517,1
nuerk_2005_003,68,9,left,512,1
nuerk_2005_003,69,1,left,575,1
nuerk_2005_003,70,4,right,552,1
nuerk_2005_003,71,7,left,473,1
nuerk_2005_003,72,7,left,504,1
nuerk_2005_003,73,5,left,606,1
nuerk_2005_003,74,2,right,484,1
nuerk_2005_003,75,3,left,578,1
nuerk_2005_003,76,3,left,613,1
nuerk_2005_003,77,9,left,663,1
nuerk_2005_003,78,9,left,547,1
nuerk_2005_003,79,6,right,543,1
nuerk_2005_003,80,3,left,605,1
nuerk_2005_003,81,4,right,551,1
nuerk_2005_003,82,6,right,563,1
nuerk_2005_003,83,3,left,519,1
nuerk_2005_003,84,6,right,603,1
nuerk_2005_003,85,6,right,473,1
nuerk_2005_003,86,8,right,595,1
nuerk_2005_003,87,5,left,490,1
nuerk_2005_003,88,4,right,489,1
nuerk_2005_003,89,0,right,573,1
nuerk_2005_003,90,2,right,479,1
nuerk_2005_003,91,5,left,528,1
nuerk_2005_003,92,9,left,485,1
nuerk_2005_003,93,7,left,505,1
nuerk_2005_003,94,2,right,464,1
nuerk_2005_003,95,8,right,536,1
nuerk_2005_003,96,2,right,471,1
nuerk_2005_003,97,8,right,562,1
nuerk_2005_003,98,6,right,448,1
nuerk_2005_003,99,2,right,501,1
nuerk_2005_003,100,7,left,560,1
nuerk_2005_003,101,7,right,648,1
nuerk_2005_003,102,6,left,584,1
nuerk_2005_003,103,2,left,491,1
nuerk_2005_003,104,9,right,503,1
nuerk_2005_003,105,7,right,681,1
nuerk_2005_003,106,8,left,458,1
nuerk_2005_003,107,8,left,455,1
nuerk_2005_003,108,2,left,505,1
nuerk_2005_003,109,3,right,489,1
nuerk_2005_003,110,9,right,501,1
nuerk_2005_003,111,0,left,489,1
nuerk_2005_003,112,1,right,661,1
nuerk_2005_003,113,2,left,603,1
nuerk_2005_003,114,6,left,602,1
nuerk_2005_003,115,9,right,593,1
nuerk_2005_003,116,9,right,646,1
nuerk_2005_003,117,1,right,832,1
nuerk_2005_003,118,2,left,590,1
nuerk_2005_003,119,1,right,517,1
nuerk_2005_003,120,5,right,646,1
nuerk_2005_003,121,8,left,592,1
nuerk_2005_003,122,4,left,518,1
nuerk_2005_003,123,1,right,544,1
nuerk_2005_003,124,5,right,566,1
nuerk_2005_003,125,2,left,506,1
nuerk_2005_003,126,0,left,507,1
nuerk_2005_003,127,4,left,541,1
nuerk_2005_003,128,9,right,547,1
nuerk_2005_003,129,3,right,789,1
nuerk_2005_003,130,1,right,599,1
nuerk_2005_003,131,6,left,572,1
nuerk_2005_003,132,7,right,577,1
nuerk_2005_003,133,4,left,426,1
nuerk_2005_003,134,2,left,419,1
nuerk_2005_003,135,1,right,560,1
nuerk_2005_003,136,4,left,531,1
nuerk_2005_003,137,5,right,502,1
nuerk_2005_003,138,8,left,634,1
nuerk_2005_003,139,7,right,477,1
nuerk_2005_003,140,5,right,688,1
nuerk_2005_003,141,8,left,572,1
nuerk_2005_003,142,1,right,692,1
nuerk_2005_003,143,0,left,519,1
nuerk_2005_003,144,3,right,587,1
nuerk_2005_003,145,4,left,499,1
nuerk_2005_003,146,7,right,617,1
nuerk_2005_003,147,9,right,587,1
nuerk_2005_003,148,0,left,644,1
nuerk_2005_003,149,9,right,550,1
nuerk_2005_003,150,3,right,547,1
nuerk_2005_003,151,1,right,529,1
nuerk_2005_003,152,4,left,485,1
nuerk_2005_003,153,6,left,506,1
nuerk_2005_003,154,5,right,566,1
nuerk_2005_003,155,9,right,529,1
nuerk_2005_003,156,2,left,458,1
nuerk_2005_003,157,4,left,497,1
nuerk_2005_003,158,2,left,469,1
nuerk_2005_003,159,5,right,458,1
nuerk_2005_003,160,4,left,456,1
nuerk_2005_003,161,0,left,492,1
nuerk_2005_003,162,3,right,475,1
nuerk_2005_003,163,0,left,521,1
nuerk_2005_003,164,4,left,531,1
nuerk_2005_003,165,7,right,503,1
nuerk_2005_003,166,8,left,431,1
nuerk_2005_003,167,3,right,562,1
nuerk_2005_003,168,8,left,547,1
nuerk_2005_003,169,2,left,554,1
nuerk_2005_003,170,9,right,492,1
nuerk_2005_003,171,2,left,460,1
nuerk_2005_003,172,1,right,546,1
nuerk_2005_003,173,5,right,538,1
nuerk_2005_003,174,6,left,528,1
nuerk_2005_003,175,4,left,513,1
nuerk_2005_003,176,3,right,549,1
nuerk_2005_003,177,7,right,561,1
nuerk_2005_003,178,8,left,454,1
nuerk_2005_003,179,5,right,492,1
nuerk_2005_003,180,1,right,515,1
nuerk_2005_003,181,8,left,415,1
nuerk_2005_003,182,7,right,508,1
nuerk_2005_003,183,0,left,398,1
nuerk_2005_003,184,0,left,455,1
nuerk_2005_003,185,7,right,493,1
nuerk_2005_003,186,3,right,593,1
nuerk_2005_003,187,3,right,608,1
nuerk_2005_003,188,7,right,501,1
nuerk_2005_003,189,5,right,688,1
nuerk_2005_003,190,3,right,631,1
nuerk_2005_003,191,6,left,646,1
nuerk_2005_003,192,8,left,584,1
nuerk_2005_003,193,0,left,548,1
nuerk_2005_003,194,0,left,397,1
nuerk_2005_003,195,6,left,613,1
nuerk_2005_003,196,6,left,445,1
nuerk_2005_003,197,6,left,421,1
nuerk_2005_003,198,9,right,488,1
nuerk_2005_003,199,6,left,701,1
nuerk_2005_003,200,5,right,576,1
nuerk_2005_004,1,4,left,389,1
nuerk_2005_004,2,4,left,369,1
nuerk_2005_004,3,9,right,516,1
nuerk_2005_004,4,3,right,998,1
nuerk_2005_004,5,7,right,400,1
nuerk_2005_004,6,8,left,543,1
nuerk_2005_004,7,3,right,692,1
nuerk_2005_004,8,2,left,445,1
nuerk_2005_004,9,4,left,375,1
nuerk_2005_004,10,2,left,374,1
nuerk_2005_004,11,0,left,416,1
nuerk_2005_004,12,8,left,548,1
nuerk_2005_004,13,9,right,398,1
nuerk_2005_004,14,7,right,472,1
nuerk_2005_004,15,0,left,386,1
nuerk_2005_004,16,1,right,462,0
nuerk_2005_004,17,3,right,632,1
nuerk_2005_004,18,6,left,517,1
nuerk_2005_004,19,9,right,714,1
nuerk_2005_004,20,2,left,476,1
nuerk_2005_004,21,7,right,729,1
nuerk_2005_004,22,7,right,386,1
nuerk_2005_004,23,9,right,594,1
nuerk_2005_004,24,2,left,476,1
nuerk_2005_004,25,4,left,361,1
nuerk_2005_004,26,1,right,428,0
nuerk_2005_004,27,3,right,716,1
nuerk_2005_004,28,1,right,581,1
nuerk_2005_004,29,9,right,446,1
nuerk_2005_004,30,0,left,510,1
nuerk_2005_004,31,3,right,487,1
nuerk_2005_004,32,0,left,468,1
nuerk_2005_004,33,7,right,602,1
nuerk_2005_004,34,6,left,660,1
nuerk_2005_004,35,2,left,341,1
nuerk_2005_004,36,5,right,503,1
nuerk_2005_004,37,1,right,447,1
nuerk_2005_004,38,9,right,456,1
nuerk_2005_004,39,2,left,507,1
nuerk_2005_004,40,3,right,556,1
nuerk_2005_004,41,0,left,453,1
nuerk_2005_004,42,2,left,488,1
nuerk_2005_004,43,7,right,499,1
nuerk_2005_004,44,0,left,442,1
nuerk_2005_004,45,7,right,473,0
nuerk_2005_004,46,0,left,411,1
nuerk_2005_004,47,3,right,500,0
nuerk_2005_004,48,5,right,792,1
nuerk_2005_004,49,5,right,389,1
nuerk_2005_004,50,6,left,442,1
nuerk_2005_004,51,2,left,944,1
nuerk_2005_004,52,6,left,403,1
nuerk_2005_004,53,8,left,575,1
nuerk_2005_004,54,5,right,564,1
nuerk_2005_004,55,6,left,663,1
nuerk_2005_004,56,5,right,404,1
nuerk_2005_004,57,7,right,448,1
nuerk_2005_004,58,9,right,399,1
nuerk_2005_004,59,4,left,485,1
nuerk_2005_004,60,8,left,502,0
nuerk_2005_004,61,0,left,459,1
nuerk_2005_004,62,1,right,440,0
nuerk_2005_004,63,5,right,560,1
nuerk_2005_004,64,1,right,848,1
nuerk_2005_004,65,3,right,442,1
nuerk_2005_004,66,4,left,503,1
nuerk_2005_004,67,6,left,357,1
nuerk_2005_004,68,9,right,500,1
nuerk_2005_004,69,1,right,456,0
nuerk_2005_004,70,4,left,549,1
nuerk_2005_004,71,5,right,356,1
nuerk_2005_004,72,5,right,422,1
nuerk_2005_004,73,8,left,950,1
nuerk_2005_004,74,5,right,949,1
nuerk_2005_004,75,2,left,495,1
nuerk_2005_004,76,9,right,405,1
nuerk_2005_004,77,8,left,491,1
nuerk_2005_004,78,6,left,616,1
nuerk_2005_004,79,6,left,409,1
nuerk_2005_004,80,6,left,354,1
nuerk_2005_004,81,1,right,751,1
nuerk_2005_004,82,8,left,516,1
nuerk_2005_004,83,3,right,768,1
nuerk_2005_004,84,1,right,414,1
nuerk_2005_004,85,8,left,471,1
nuerk_2005_004,86,3,right,402,1
nuerk_2005_004,87,6,left,935,1
nuerk_2005_004,88,7,right,682,1
nuerk_2005_004,89,0,left,458,1
nuerk_2005_004,90,4,left,498,0
nuerk_2005_004,91,4,left,372,0
nuerk_2005_004,92,7,right,867,1
nuerk_2005_004,93,0,left,953,1
nuerk_2005_004,94,1,right,997,1
nuerk_2005_004,95,2,left,944,1
nuerk_2005_004,96,8,left,981,1
nuerk_2005_004,97,4,left,370,1
nuerk_2005_004,98,8,left,399,1
nuerk_2005_004,99,5,right,471,1
nuerk_2005_004,100,9,right,388,1
nuerk_2005_004,101,2,right,567,1
nuerk_2005_004,102,2,right,442,1
nuerk_2005_004,103,0,right,619,1
nuerk_2005_004,104,5,left,529,1
nuerk_2005_004,105,6,right,646,1
nuerk_2005_004,106,9,left,810,1
nuerk_2005_004,107,8,right,530,1
nuerk_2005_004,108,4,right,620,1
nuerk_2005_004,109,7,left,509,1
nuerk_2005_004,110,4,right,602,1
nuerk_2005_004,111,5,left,517,1
nuerk_2005_004,112,7,left,598,1
nuerk_2005_004,113,0,right,485,1
nuerk_2005_004,114,4,right,595,1
nuerk_2005_004,115,0,right,594,1
nuerk_2005_004,116,9,left,535,1
nuerk_2005_004,117,1,left,647,1
nuerk_2005_004,118,7,left,440,1
nuerk_2005_004,119,1,left,486,0
nuerk_2005_004,120,2,right,527,1
nuerk_2005_004,121,9,left,523,1
nuerk_2005_004,122,3,left,633,1
nuerk_2005_004,123,3,left,416,1
nuerk_2005_004,124,0,right,570,1
nuerk_2005_004,125,5,left,1050,1
nuerk_2005_004,126,5,left,384,1
nuerk_2005_004,127,3,left,431,1
nuerk_2005_004,128,4,right,358,1
nuerk_2005_004,129,1,left,406,1
nuerk_2005_004,130,1,left,584,1
nuerk_2005_004,131,9,left,633,1
nuerk_2005_004,132,1,left,416,1
nuerk_2005_004,133,9,left,433,1
nuerk_2005_004,134,6,right,433,1
nuerk_2005_004,135,0,right,488,0
nuerk_2005_004,136,7,left,498,1
nuerk_2005_004,137,5,left,542,1
nuerk_2005_004,138,7,left,430,1
nuerk_2005_004,139,5,left,414,0
nuerk_2005_004,140,4,right,809,1
nuerk_2005_004,141,8,right,488,1
nuerk_2005_004,142,5,left,498,1
nuerk_2005_004,143,8,right,457,1
nuerk_2005_004,144,0,right,602,1
nuerk_2005_004,145,4,right,1356,1
nuerk_2005_004,146,2,right,414,1
nuerk_2005_004,147,5,left,531,1
nuerk_2005_004,148,8,right,418,1
nuerk_2005_004,149,4,right,458,1
nuerk_2005_004,150,0,right,615,1
nuerk_2005_004,151,0,right,451,1
nuerk_2005_004,152,5,left,357,1
nuerk_2005_004,153,7,left,395,1
nuerk_2005_004,154,8,right,480,1
nuerk_2005_004,155,7,left,415,0
nuerk_2005_004,156,9,left,617,1
nuerk_2005_004,157,9,left,395,1
nuerk_2005_004,158,2,right,537,1
nuerk_2005_004,159,5,left,554,1
nuerk_2005_004,160,6,right,430,1
nuerk_2005_004,161,2,right,428,0
nuerk_2005_004,162,7,left,507,1
nuerk_2005_004,163,2,right,558,1
nuerk_2005_004,164,3,left,716,1
nuerk_2005_004,165,4,right,536,1
nuerk_2005_004,166,6,right,500,1
nuerk_2005_004,167,3,left,442,1
nuerk_2005_004,168,2,right,721,1
nuerk_2005_004,169,7,left,1224,1
nuerk_2005_004,170,9,left,449,0
nuerk_2005_004,171,3,left,499,1
nuerk_2005_004,172,1,left,501,0
nuerk_2005_004,173,8,right,605,1
nuerk_2005_004,174,8,right,465,1
nuerk_2005_004,175,6,right,509,1
nuerk_2005_004,176,0,right,398,0
nuerk_2005_004,177,6,right,499,1
nuerk_2005_004,178,0,right,488,1
nuerk_2005_004,179,4,right,516,1
nuerk_2005_004,180,9,left,565,1
nuerk_2005_004,181,8,right,449,1
nuerk_2005_004,182,9,left,429,0
nuerk_2005_004,183,6,right,604,1
nuerk_2005_004,184,1,left,520,1
nuerk_2005_004,185,1,left,398,1
nuerk_2005_004,186,1,left,425,1
nuerk_2005_004,187,8,right,421,1
nuerk_2005_004,188,2,right,429,0
nuerk_2005_004,189,7,left,571,1
nuerk_2005_004,190,3,left,615,1
nuerk_2005_004,191,6,right,425,1
nuerk_2005_004,192,3,left,490,1
nuerk_2005_004,193,2,right,518,1
nuerk_2005_004,194,8,right,500,1
nuerk_2005_004,195,3,left,442,1
nuerk_2005_004,196,6,right,475,1
nuerk_2005_004,197,6,right,407,1
nuerk_2005_004,198,1,left,454,1
nuerk_2005_004,199,3,left,432,1
nuerk_2005_004,200,4,right,415,1
nuerk_2005_005,1,7,left,626,1
nuerk_2005_005,2,3,left,625,1
nuerk_2005_005,3,5,left,533,1
nuerk_2005_005,4,2,right,519,1
nuerk_2005_005,5,1,left,657,1
nuerk_2005_005,6,7,left,482,1
nuerk_2005_005,7,3,left,442,1
nuerk_2005_005,8,6,right,591,1
nuerk_2005_005,9,5,left,702,1
nuerk_2005_005,10,0,right,662,1
nuerk_2005_005,11,3,left,487,1
nuerk_2005_005,12,5,left,513,0
nuerk_2005_005,13,8,right,534,1
nuerk_2005_005,14,6,right,477,1
nuerk_2005_005,15,3,left,483,1
nuerk_2005_005,16,9,left,934,1
nuerk_2005_005,17,5,left,547,1
nuerk_2005_005,18,2,right,526,1
nuerk_2005_005,19,4,right,609,1
nuerk_2005_005,20,7,left,456,1
nuerk_2005_005,21,9,left,461,1
nuerk_2005_005,22,1,left,687,1
nuerk_2005_005,23,1,left,453,1
nuerk_2005_005,24,8,right,519,1
nuerk_2005_005,25,2,right,472,1
nuerk_2005_005,26,0,right,432,1
nuerk_2005_005,27,9,left,458,1
nuerk_2005_005,28,5,left,412,0
nuerk_2005_005,29,1,left,531,1
nuerk_2005_005,30,7,left,383,1
nuerk_2005_005,31,1,left,387,1
nuerk_2005_005,32,3,left,466,1
nuerk_2005_005,33,0,right,594,1
nuerk_2005_005,34,7,left,532,1
nuerk_2005_005,35,9,left,502,1
nuerk_2005_005,36,0,right,517,1
nuerk_2005_005,37,0,right,527,1
nuerk_2005_005,38,6,right,571,1
nuerk_2005_005,39,5,left,501,1
nuerk_2005_005,40,6,right,546,1
nuerk_2005_005,41,1,left,649,1
nuerk_2005_005,42,5,left,614,1
nuerk_2005_005,43,1,left,488,1
nuerk_2005_005,44,6,right,485,1
nuerk_2005_005,45,8,right,420,1
nuerk_2005_005,46,1,left,413,1
nuerk_2005_005,47,8,right,490,1
nuerk_2005_005,48,7,left,485,1
nuerk_2005_005,49,9,left,490,1
nuerk_2005_005,50,9,left,455,1
nuerk_2005_005,51,5,left,475,1
nuerk_2005_005,52,8,right,507,1
nuerk_2005_005,53,5,left,525,1
nuerk_2005_005,54,8,right,507,1
nuerk_2005_005,55,0,right,498,1
nuerk_2005_005,56,4,right,414,1
nuerk_2005_005,57,2,right,419,1
nuerk_2005_005,58,2,right,400,1
nuerk_2005_005,59,3,left,514,1
nuerk_2005_005,60,5,left,402,1
nuerk_2005_005,61,6,right,474,1
nuerk_2005_005,62,7,left,417,1
nuerk_2005_005,63,1,left,439,1
nuerk_2005_005,64,7,left,410,1
nuerk_2005_005,65,1,left,369,1
nuerk_2005_005,66,6,right,530,1
nuerk_2005_005,67,2,right,386,1
nuerk_2005_005,68,1,left,378,0
nuerk_2005_005,69,8,right,469,0
nuerk_2005_005,70,2,right,427,1
nuerk_2005_005,71,0,right,427,1
nuerk_2005_005,72,5,left,424,1
nuerk_2005_005,73,5,left,373,1
nuerk_2005_005,74,9,left,516,1
nuerk_2005_005,75,6,right,406,1
nuerk_2005_005,76,1,left,519,1
nuerk_2005_005,77,4,right,486,1
nuerk_2005_005,78,0,right,493,1
nuerk_2005_005,79,4,right,389,1
nuerk_2005_005,80,8,right,358,1
nuerk_2005_005,81,1,left,425,1
nuerk_2005_005,82,4,right,520,1
nuerk_2005_005,83,4,right,386,1
nuerk_2005_005,84,3,left,477,1
nuerk_2005_005,85,5,left,483,0
nuerk_2005_005,86,2,right,490,1
nuerk_2005_005,87,2,right,329,1
nuerk_2005_005,88,0,right,486,1
nuerk_2005_005,89,4,right,451,1
nuerk_2005_005,90,7,left,457,1
nuerk_2005_005,91,9,left,524,1
nuerk_2005_005,92,5,left,373,1
nuerk_2005_005,93,5,left,372,1
nuerk_2005_005,94,7,left,400,1
nuerk_2005_005,95,0,right,516,1
nuerk_2005_005,96,9,left,434,1
nuerk_2005_005,97,1,left,417,1
nuerk_2005_005,98,0,right,467,0
nuerk_2005_005,99,8,right,512,1
nuerk_2005_005,100,9,left,516,1
nuerk_2005_005,101,4,left,415,1
nuerk_2005_005,102,5,right,492,1
nuerk_2005_005,103,2,left,474,1
nuerk_2005_005,104,2,left,387,1
nuerk_2005_005,105,3,right,369,1
nuerk_2005_005,106,4,left,384,1
nuerk_2005_005,107,4,left,329,1
nuerk_2005_005,108,0,left,400,0
nuerk_2005_005,109,9,right,428,0
nuerk_2005_005,110,1,right,442,1
nuerk_2005_005,111,9,right,346,1
nuerk_2005_005,112,6,left,448,1
nuerk_2005_005,113,8,left,540,1
nuerk_2005_005,114,9,right,517,1
nuerk_2005_005,115,5,right,485,1
nuerk_2005_005,116,4,left,432,1
nuerk_2005_005,117,9,right,400,0
nuerk_2005_005,118,2,left,413,1
nuerk_2005_005,119,3,right,519,1
nuerk_2005_005,120,3,right,371,1
nuerk_2005_005,121,2,left,443,1
nuerk_2005_005,122,8,left,445,1
nuerk_2005_005,123,2,left,404,1
nuerk_2005_005,124,5,right,404,1
nuerk_2005_005,125,4,left,449,0
nuerk_2005_005,126,4,left,427,1
nuerk_2005_005,127,3,right,383,1
nuerk_2005_005,128,4,left,503,1
nuerk_2005_005,129,4,left,358,1
nuerk_2005_005,130,8,left,440,1
nuerk_2005_005,131,9,right,487,1
nuerk_2005_005,132,6,left,557,0
nuerk_2005_005,133,8,left,716,0
nuerk_2005_005,134,2,left,534,1
nuerk_2005_005,135,4,left,388,1
nuerk_2005_005,136,7,right,529,1
nuerk_2005_005,137,6,left,615,1
nuerk_2005_005,138,4,left,432,1
nuerk_2005_005,139,0,left,529,1
nuerk_2005_005,140,8,left,441,1
nuerk_2005_005,141,3,right,546,1
nuerk_2005_005,142,0,left,664,1
nuerk_2005_005,143,3,right,694,1
nuerk_2005_005,144,7,right,419,1
nuerk_2005_005,145,1,right,473,1
nuerk_2005_005,146,1,right,347,1
nuerk_2005_005,147,9,right,427,1
nuerk_2005_005,148,7,right,441,1
nuerk_2005_005,149,6,left,487,1
nuerk_2005_005,150,2,left,481,1
nuerk_2005_005,151,6,left,400,1
nuerk_2005_005,152,9,right,487,1
nuerk_2005_005,153,6,left,536,1
nuerk_2005_005,154,0,left,606,1
nuerk_2005_005,155,9,right,724,1
nuerk_2005_005,156,4,left,446,1
nuerk_2005_005,157,9,right,522,1
nuerk_2005_005,158,8,left,487,1
nuerk_2005_005,159,7,right,413,1
nuerk_2005_005,160,6,left,577,0
nuerk_2005_005,161,8,left,497,1
nuerk_2005_005,162,6,left,424,1
nuerk_2005_005,163,3,right,491,1
nuerk_2005_005,164,3,right,417,1
nuerk_2005_005,165,0,left,497,1
nuerk_2005_005,166,2,left,482,1
nuerk_2005_005,167,7,right,489,1
nuerk_2005_005,168,7,right,473,1
nuerk_2005_005,169,6,left,488,1
nuerk_2005_005,170,3,right,515,1
nuerk_2005_005,171,6,left,505,1
nuerk_2005_005,172,5,right,752,1
nuerk_2005_005,173,7,right,618,0
nuerk_2005_005,174,2,left,677,1
nuerk_2005_005,175,8,left,540,1
nuerk_2005_005,176,6,left,471,1
nuerk_2005_005,177,7,right,445,1
nuerk_2005_005,178,3,right,450,1
nuerk_2005_005,179,6,left,413,1
nuerk_2005_005,180,9,right,476,1
nuerk_2005_005,181,3,right,552,1
nuerk_2005_005,182,4,left,488,1
nuerk_2005_005,183,0,left,454,1
nuerk_2005_005,184,7,right,447,1
nuerk_2005_005,185,1,right,585,0
nuerk_2005_005,186,1,right,766,1
nuerk_2005_005,187,5,right,451,1
nuerk_2005_005,188,3,right,445,1
nuerk_2005_005,189,0,left,549,1
nuerk_2005_005,190,1,right,890,1
nuerk_2005_005,191,4,left,501,1
nuerk_2005_005,192,8,left,616,1
nuerk_2005_005,193,7,right,450,1
nuerk_2005_005,194,2,left,486,1
nuerk_2005_005,195,0,left,549,1
nuerk_2005_005,196,8,left,658,1
nuerk_2005_005,197,3,right,586,1
nuerk_2005_005,198,2,left,636,1
nuerk_2005_005,199,0,left,477,1
nuerk_2005_005,200,8,left,454,1
nuerk_2005_006,1,9,left,663,1
nuerk_2005_006,2,8,right,533,1
nuerk_2005_006,3,8,right,448,1
nuerk_2005_006,4,5,left,526,1
nuerk_2005_006,5,9,left,823,1
nuerk_2005_006,6,2,right,561,1
nuerk_2005_006,7,3,left,516,1
nuerk_2005_006,8,3,left,404,1
nuerk_2005_006,9,6,right,490,1
nuerk_2005_006,10,6,right,445,1
nuerk_2005_006,11,7,left,533,1
nuerk_2005_006,12,5,left,473,1
nuerk_2005_006,13,1,left,444,1
nuerk_2005_006,14,2,right,448,1
nuerk_2005_006,15,1,left,454,1
nuerk_2005_006,16,2,right,476,1
nuerk_2005_006,17,6,right,566,1
nuerk_2005_006,18,4,right,436,1
nuerk_2005_006,19,5,left,418,1
nuerk_2005_006,20,0,right,846,1
nuerk_2005_006,21,7,left,505,1
nuerk_2005_006,22,0,right,752,1
nuerk_2005_006,23,1,left,502,1
nuerk_2005_006,24,6,right,546,1
nuerk_2005_006,25,9,left,607,1
nuerk_2005_006,26,0,right,628,1
nuerk_2005_006,27,9,left,743,1
nuerk_2005_006,28,7,left,459,1
nuerk_2005_006,29,3,left,340,1
nuerk_2005_006,30,1,left,398,1
nuerk_2005_006,31,5,left,496,1
nuerk_2005_006,32,9,left,491,1
nuerk_2005_006,33,3,left,414,1
nuerk_2005_006,34,8,right,389,1
nuerk_2005_006,35,2,right,371,1
nuerk_2005_006,36,4,right,371,0
nuerk_2005_006,37,2,right,1195,1
nuerk_2005_006,38,6,right,449,1
nuerk_2005_006,39,5,left,499,1
nuerk_2005_006,40,9,left,527,1
nuerk_2005_006,41,9,left,395,1
nuerk_2005_006,42,4,right,491,1
nuerk_2005_006,43,7,left,458,1
nuerk_2005_006,44,7,left,382,1
nuerk_2005_006,45,2,right,445,1
nuerk_2005_006,46,1,left,418,1
nuerk_2005_006,47,1,left,352,1
nuerk_2005_006,48,4,right,446,1
nuerk_2005_006,49,5,left,419,1
nuerk_2005_006,50,8,right,442,1
nuerk_2005_006,51,6,right,583,1
nuerk_2005_006,52,4,right,387,0
nuerk_2005_006,53,6,right,469,1
nuerk_2005_006,54,9,left,469,1
nuerk_2005_006,55,6,right,485,1
nuerk_2005_006,56,9,left,534,1
nuerk_2005_006,57,4,right,404,1
nuerk_2005_006,58,3,left,474,1
nuerk_2005_006,59,0,right,649,1
nuerk_2005_006,60,3,left,643,1
nuerk_2005_006,61,4,right,533,1
nuerk_2005_006,62,7,left,431,1
nuerk_2005_006,63,0,right,574,1
nuerk_2005_006,64,7,left,434,0
nuerk_2005_006,65,5,left,605,1
nuerk_2005_006,66,0,right,477,1
nuerk_2005_006,67,0,right,701,1
nuerk_2005_006,68,7,left,515,1
nuerk_2005_006,69,6,right,549,1
nuerk_2005_006,70,8,right,516,1
nuerk_2005_006,71,5,left,476,1
nuerk_2005_006,72,1,left,477,1
nuerk_2005_006,73,4,right,483,1
nuerk_2005_006,74,1,left,575,1
nuerk_2005_006,75,0,right,578,1
nuerk_2005_006,76,3,left,526,1
nuerk_2005_006,77,8,right,522,1
nuerk_2005_006,78,1,left,430,1
nuerk_2005_006,79,5,left,484,1
nuerk_2005_006,80,6,right,563,1
nuerk_2005_006,81,1,left,460,1
nuerk_2005_006,82,3,left,527,1
nuerk_2005_006,83,8,right,412,1
nuerk_2005_006,84,8,right,418,1
nuerk_2005_006,85,7,left,425,1
nuerk_2005_006,86,3,left,507,0
nuerk_2005_006,87,2,right,469,1
nuerk_2005_006,88,2,right,400,1
nuerk_2005_006,89,2,right,358,1
nuerk_2005_006,90,4,right,558,1
nuerk_2005_006,91,8,right,456,1
nuerk_2005_006,92,9,left,520,1
nuerk_2005_006,93,0,right,573,1
nuerk_2005_006,94,5,left,430,1
nuerk_2005_006,95,7,left,686,1
nuerk_2005_006,96,8,right,512,1
nuerk_2005_006,97,2,right,516,0
nuerk_2005_006,98,3,left,548,1
nuerk_2005_006,99,4,right,614,1
nuerk_2005_006,100,0,right,823,1
nuerk_2005_006,101,8,left,384,1
nuerk_2005_006,102,2,left,315,1
nuerk_2005_006,103,6,left,345,1
nuerk_2005_006,104,1,right,434,1
nuerk_2005_006,105,9,right,362,1
nuerk_2005_006,106,3,right,355,1
nuerk_2005_006,107,7,right,362,1
nuerk_2005_006,108,6,left,329,1
nuerk_2005_006,109,9,right,497,0
nuerk_2005_006,110,5,right,513,1
nuerk_2005_006,111,2,left,327,0
nuerk_2005_006,112,8,left,771,1
nuerk_2005_006,113,7,right,484,1
nuerk_2005_006,114,4,left,404,1
nuerk_2005_006,115,3,right,490,1
nuerk_2005_006,116,6,left,370,1
nuerk_2005_006,117,2,left,544,1
nuerk_2005_006,118,2,left,342,1
nuerk_2005_006,119,4,left,242,1
nuerk_2005_006,120,0,left,432,0
nuerk_2005_006,121,4,left,543,1
nuerk_2005_006,122,0,left,402,1
nuerk_2005_006,123,4,left,415,1
nuerk_2005_006,124,4,left,330,1
nuerk_2005_006,125,0,left,471,1
nuerk_2005_006,126,8,left,383,0
nuerk_2005_006,127,2,left,604,1
nuerk_2005_006,128,3,right,448,1
nuerk_2005_006,129,6,left,497,1
nuerk_2005_006,130,5,right,469,1
nuerk_2005_006,131,9,right,400,1
nuerk_2005_006,132,7,right,430,1
nuerk_2005_006,133,9,right,502,1
nuerk_2005_006,134,9,right,346,1
nuerk_2005_006,135,1,right,551,1
nuerk_2005_006,136,5,right,445,1
nuerk_2005_006,137,2,left,361,1
nuerk_2005_006,138,3,right,483,1
nuerk_2005_006,139,3,right,462,1
nuerk_2005_006,140,9,right,547,1
nuerk_2005_006,141,8,left,468,1
nuerk_2005_006,142,4,left,367,1
nuerk_2005_006,143,6,left,351,1
nuerk_2005_006,144,5,right,489,1
nuerk_2005_006,145,9,right,430,1
nuerk_2005_006,146,5,right,589,1
nuerk_2005_006,147,1,right,500,1
nuerk_2005_006,148,7,right,372,1
nuerk_2005_006,149,5,right,345,1
nuerk_2005_006,150,7,right,334,1
nuerk_2005_006,151,7,right,348,1
nuerk_2005_006,152,5,right,339,0
nuerk_2005_006,153,2,left,714,1
nuerk_2005_006,154,8,left,374,1
nuerk_2005_006,155,4,left,287,1
nuerk_2005_006,156,3,right,752,1
nuerk_2005_006,157,8,left,517,1
nuerk_2005_006,158,7,right,484,1
nuerk_2005_006,159,0,left,445,1
nuerk_2005_006,160,6,left,414,1
nuerk_2005_006,161,2,left,344,1
nuerk_2005_006,162,6,left,330,1
nuerk_2005_006,163,0,left,399,1
nuerk_2005_006,164,4,left,425,1
nuerk_2005_006,165,6,left,331,1
nuerk_2005_006,166,1,right,734,1
nuerk_2005_006,167,3,right,680,1
nuerk_2005_006,168,5,right,353,1
nuerk_2005_006,169,4,left,504,1
nuerk_2005_006,170,0,left,575,1
nuerk_2005_006,171,9,right,478,1
nuerk_2005_006,172,3,right,485,1
nuerk_2005_006,173,0,left,377,0
nuerk_2005_006,174,8,left,700,1
nuerk_2005_006,175,6,left,325,1
nuerk_2005_006,176,8,left,373,1
nuerk_2005_006,177,8,left,316,1
nuerk_2005_006,178,3,right,406,1
nuerk_2005_006,179,0,left,462,1
nuerk_2005_006,180,9,right,591,1
nuerk_2005_006,181,1,right,445,1
nuerk_2005_006,182,6,left,519,1
nuerk_2005_006,183,8,left,426,1
nuerk_2005_006,184,1,right,522,1
nuerk_2005_006,185,1,right,403,1
nuerk_2005_006,186,3,right,390,1
nuerk_2005_006,187,0,left,529,1
nuerk_2005_006,188,7,right,306,0
nuerk_2005_006,189,5,right,652,1
nuerk_2005_006,190,4,left,530,1
nuerk_2005_006,191,5,right,503,1
nuerk_2005_006,192,1,right,534,1
nuerk_2005_006,193,7,right,491,1
nuerk_2005_006,194,7,right,314,1
nuerk_2005_006,195,2,left,476,1
nuerk_2005_006,196,1,right,549,1
nuerk_2005_006,197,1,right,371,1
nuerk_2005_006,198,9,right,416,0
nuerk_2005_006,199,0,left,841,1
nuerk_2005_006,200,2,left,326,1
nuerk_2005_007,1,7,right,430,1
nuerk_2005_007,2,1,right,416,1
nuerk_2005_007,3,6,left,463,1
nuerk_2005_007,4,7,right,448,1
nuerk_2005_007,5,7,right,485,1
nuerk_2005_007,6,4,left,491,1
nuerk_2005_007,7,7,right,459,1
nuerk_2005_007,8,0,left,456,1
nuerk_2005_007,9,6,left,462,1
nuerk_2005_007,10,4,left,399,1
nuerk_2005_007,11,4,left,412,1
nuerk_2005_007,12,0,left,472,1
nuerk_2005_007,13,2,left,473,1
nuerk_2005_007,14,4,left,445,1
nuerk_2005_007,15,8,left,475,1
nuerk_2005_007,16,2,left,403,1
nuerk_2005_007,17,5,right,389,1
nuerk_2005_007,18,9,right,341,0
nuerk_2005_007,19,4,left,471,1
nuerk_2005_007,20,8,left,471,1
nuerk_2005_007,21,5,right,416,1
nuerk_2005_007,22,7,right,363,1
nuerk_2005_007,23,2,left,388,1
nuerk_2005_007,24,7,right,427,1
nuerk_2005_007,25,4,left,409,1
nuerk_2005_007,26,6,left,470,1
nuerk_2005_007,27,0,left,441,1
nuerk_2005_007,28,9,right,401,1
nuerk_2005_007,29,1,right,373,1
nuerk_2005_007,30,0,left,446,1
nuerk_2005_007,31,3,right,418,0
nuerk_2005_007,32,8,left,439,1
nuerk_2005_007,33,5,right,428,1
nuerk_2005_007,34,2,left,526,1
nuerk_2005_007,35,0,left,448,1
nuerk_2005_007,36,4,left,541,1
nuerk_2005_007,37,6,left,428,1
nuerk_2005_007,38,1,right,383,1
nuerk_2005_007,39,6,left,459,1
nuerk_2005_007,40,8,left,455,1
nuerk_2005_007,41,9,right,565,1
nuerk_2005_007,42,3,right,362,1
nuerk_2005_007,43,5,right,461,1
nuerk_2005_007,44,0,left,530,1
nuerk_2005_007,45,5,right,429,1
nuerk_2005_007,46,9,right,515,1
nuerk_2005_007,47,7,right,406,1
nuerk_2005_007,48,8,left,434,1
nuerk_2005_007,49,3,right,418,1
nuerk_2005_007,50,5,right,399,1
nuerk_2005_007,51,9,right,341,1
nuerk_2005_007,52,7,right,344,1
nuerk_2005_007,53,8,left,376,0
nuerk_2005_007,54,5,right,480,1
nuerk_2005_007,55,1,right,401,1
nuerk_2005_007,56,2,left,301,0
nuerk_2005_007,57,2,left,472,1
nuerk_2005_007,58,8,left,371,1
nuerk_2005_007,59,3,right,357,1
nuerk_2005_007,60,1,right,384,1
nuerk_2005_007,61,5,right,477,1
nuerk_2005_007,62,6,left,483,1
nuerk_2005_007,63,2,left,372,1
nuerk_2005_007,64,2,left,356,1
nuerk_2005_007,65,9,right,394,0
nuerk_2005_007,66,8,left,539,1
nuerk_2005_007,67,0,left,470,1
nuerk_2005_007,68,9,right,443,1
nuerk_2005_007,69,7,right,332,1
nuerk_2005_007,70,1,right,374,1
nuerk_2005_007,71,9,right,419,1
nuerk_2005_007,72,3,right,458,1
nuerk_2005_007,73,4,left,396,1
nuerk_2005_007,74,9,right,349,1
nuerk_2005_007,75,3,right,414,1
nuerk_2005_007,76,6,left,503,1
nuerk_2005_007,77,2,left,387,1
nuerk_2005_007,78,0,left,395,1
nuerk_2005_007,79,8,left,403,1
nuerk_2005_007,80,8,left,372,1
nuerk_2005_007,81,1,right,387,1
nuerk_2005_007,82,7,right,369,1
nuerk_2005_007,83,4,left,470,1
nuerk_2005_007,84,5,right,472,1
nuerk_2005_007,85,2,left,358,1
nuerk_2005_007,86,3,right,383,1
nuerk_2005_007,87,0,left,402,1
nuerk_2005_007,88,9,right,532,1
nuerk_2005_007,89,6,left,443,1
nuerk_2005_007,90,4,left,374,0
nuerk_2005_007,91,3,right,463,1
nuerk_2005_007,92,6,left,445,1
nuerk_2005_007,93,0,left,490,1
nuerk_2005_007,94,5,right,458,1
nuerk_2005_007,95,3,right,384,1
nuerk_2005_007,96,1,right,433,1
nuerk_2005_007,97,1,right,361,1
nuerk_2005_007,98,3,right,444,1
nuerk_2005_007,99,1,right,362,1
nuerk_2005_007,100,6,left,386,1
nuerk_2005_007,101,5,left,403,1
nuerk_2005_007,102,9,left,430,1
nuerk_2005_007,103,1,left,383,1
nuerk_2005_007,104,3,left,445,1
nuerk_2005_007,105,4,right,506,1
nuerk_2005_007,106,0,right,508,1
nuerk_2005_007,107,7,left,440,1
nuerk_2005_007,108,0,right,395,1
nuerk_2005_007,109,9,left,398,0
nuerk_2005_007,110,2,right,499,1
nuerk_2005_007,111,4,right,372,1
nuerk_2005_007,112,3,left,474,1
nuerk_2005_007,113,4,right,447,1
nuerk_2005_007,114,8,right,559,1
nuerk_2005_007,115,0,right,442,1
nuerk_2005_007,116,7,left,401,1
nuerk_2005_007,117,8,right,488,1
nuerk_2005_007,118,0,right,458,1
nuerk_2005_007,119,8,right,501,1
nuerk_2005_007,120,4,right,460,1
nuerk_2005_007,121,2,right,459,1
nuerk_2005_007,122,2,right,429,1
nuerk_2005_007,123,8,right,429,1
nuerk_2005_007,124,8,right,429,1
nuerk_2005_007,125,0,right,517,1
nuerk_2005_007,126,4,right,397,1
nuerk_2005_007,127,1,left,454,1
nuerk_2005_007,128,1,left,387,1
nuerk_2005_007,129,3,left,381,1
nuerk_2005_007,130,4,right,533,1
nuerk_2005_007,131,5,left,513,1
nuerk_2005_007,132,6,right,427,1
nuerk_2005_007,133,1,left,382,1
nuerk_2005_007,134,7,left,502,1
nuerk_2005_007,135,5,left,386,1
nuerk_2005_007,136,1,left,476,1
nuerk_2005_007,137,6,right,407,1
nuerk_2005_007,138,8,right,369,1
nuerk_2005_007,139,9,left,343,0
nuerk_2005_007,140,9,left,460,1
nuerk_2005_007,141,6,right,429,1
nuerk_2005_007,142,7,left,408,1
nuerk_2005_007,143,7,left,367,1
nuerk_2005_007,144,6,right,436,1
nuerk_2005_007,145,3,left,423,1
nuerk_2005_007,146,5,left,340,1
nuerk_2005_007,147,8,right,400,1
nuerk_2005_007,148,1,left,559,1
nuerk_2005_007,149,7,left,554,1
nuerk_2005_007,150,6,right,404,1
nuerk_2005_007,151,8,right,392,1
nuerk_2005_007,152,4,right,359,1
nuerk_2005_007,153,9,left,513,1
nuerk_2005_007,154,2,right,447,1
nuerk_2005_007,155,5,left,496,1
nuerk_2005_007,156,1,left,467,1
nuerk_2005_007,157,6,right,426,1
nuerk_2005_007,158,2,right,392,1
nuerk_2005_007,159,3,left,445,1
nuerk_2005_007,160,5,left,446,1
nuerk_2005_007,161,2,right,476,0
nuerk_2005_007,162,5,left,474,1
nuerk_2005_007,163,0,right,1125,0
nuerk_2005_007,164,2,right,604,0
nuerk_2005_007,165,7,left,994,1
nuerk_2005_007,166,6,right,463,1
nuerk_2005_007,167,0,right,443,1
nuerk_2005_007,168,9,left,459,1
nuerk_2005_007,169,4,right,400,1
nuerk_2005_007,170,1,left,397,1
nuerk_2005_007,171,7,left,483,1
nuerk_2005_007,172,9,left,432,0
nuerk_2005_007,173,1,left,545,1
nuerk_2005_007,174,9,left,389,1
nuerk_2005_007,175,4,right,527,0
nuerk_2005_007,176,3,left,568,1
nuerk_2005_007,177,3,left,612,1
nuerk_2005_007,178,9,left,429,1
nuerk_2005_007,179,2,right,428,1
nuerk_2005_007,180,2,right,385,1
nuerk_2005_007,181,9,left,475,1
nuerk_2005_007,182,7,left,403,1
nuerk_2005_007,183,1,left,445,1
nuerk_2005_007,184,0,right,434,1
nuerk_2005_007,185,3,left,403,1
nuerk_2005_007,186,5,left,428,1
nuerk_2005_007,187,5,left,383,1
nuerk_2005_007,188,5,left,343,1
nuerk_2005_007,189,0,right,375,1
nuerk_2005_007,190,2,right,405,1
nuerk_2005_007,191,7,left,391,1
nuerk_2005_007,192,0,right,530,1
nuerk_2005_007,193,6,right,417,1
nuerk_2005_007,194,3,left,378,0
nuerk_2005_007,195,8,right,442,1
nuerk_2005_007,196,3,left,415,1
nuerk_2005_007,197,4,right,448,1
nuerk_2005_007,198,8,right,414,1
nuerk_2005_007,199,6,right,448,1
nuerk_2005_007,200,6,right,399,1
nuerk_2005_008,1,1,left,456,1
nuerk_2005_008,2,4,right,479,1
nuerk_2005_008,3,6,right,501,1
nuerk_2005_008,4,8,right,648,1
nuerk_2005_008,5,2,right,544,1
nuerk_2005_008,6,6,right,477,1
nuerk_2005_008,7,5,left,597,1
nuerk_2005_008,8,4,right,384,1
nuerk_2005_008,9,3,left,677,1
nuerk_2005_008,10,7,left,539,1
nuerk_2005_008,11,6,right,544,1
nuerk_2005_008,12,1,left,519,1
nuerk_2005_008,13,5,left,484,1
nuerk_2005_008,14,7,left,662,1
nuerk_2005_008,15,9,left,720,0
nuerk_2005_008,16,5,left,732,1
nuerk_2005_008,17,4,right,631,0
nuerk_2005_008,18,0,right,993,1
nuerk_2005_008,19,3,left,735,1
nuerk_2005_008,20,0,right,0,0
nuerk_2005_008,21,8,right,590,1
nuerk_2005_008,22,2,right,617,1
nuerk_2005_008,23,4,right,529,1
nuerk_2005_008,24,9,left,542,1
nuerk_2005_008,25,3,left,645,1
nuerk_2005_008,26,6,right,579,1
nuerk_2005_008,27,4,right,502,1
nuerk_2005_008,28,7,left,776,1
nuerk_2005_008,29,6,right,464,1
nuerk_2005_008,30,3,left,590,1
nuerk_2005_008,31,7,left,630,1
nuerk_2005_008,32,1,left,543,1
nuerk_2005_008,33,8,right,533,1
nuerk_2005_008,34,0,right,809,1
nuerk_2005_008,35,0,right,458,1
nuerk_2005_008,36,7,left,671,1
nuerk_2005_008,37,5,left,948,1
nuerk_2005_008,38,8,right,427,1
nuerk_2005_008,39,2,right,702,1
nuerk_2005_008,40,9,left,588,1
nuerk_2005_008,41,1,left,1090,1
nuerk_2005_008,42,8,right,733,1
nuerk_2005_008,43,1,left,633,1
nuerk_2005_008,44,2,right,577,1
nuerk_2005_008,45,1,left,685,1
nuerk_2005_008,46,2,right,651,1
nuerk_2005_008,47,3,left,530,1
nuerk_2005_008,48,8,right,632,1
nuerk_2005_008,49,6,right,692,1
nuerk_2005_008,50,0,right,721,1
nuerk_2005_008,51,9,left,760,1
nuerk_2005_008,52,5,left,616,1
nuerk_2005_008,53,4,right,681,1
nuerk_2005_008,54,6,right,662,1
nuerk_2005_008,55,5,left,689,1
nuerk_2005_008,56,9,left,1322,1
nuerk_2005_008,57,7,left,647,1
nuerk_2005_008,58,8,right,556,1
nuerk_2005_008,59,7,left,607,1
nuerk_2005_008,60,2,right,615,1
nuerk_2005_008,61,3,left,577,1
nuerk_2005_008,62,0,right,557,1
nuerk_2005_008,63,2,right,658,1
nuerk_2005_008,64,1,left,686,1
nuerk_2005_008,65,5,left,566,0
nuerk_2005_008,66,3,left,650,1
nuerk_2005_008,67,4,right,632,1
nuerk_2005_008,68,4,right,504,1
nuerk_2005_008,69,0,right,608,1
nuerk_2005_008,70,5,left,527,1
nuerk_2005_008,71,9,left,641,1
nuerk_2005_008,72,9,left,673,1
nuerk_2005_008,73,8,right,621,1
nuerk_2005_008,74,9,left,689,1
nuerk_2005_008,75,7,left,715,1
nuerk_2005_008,76,3,left,619,1
nuerk_2005_008,77,6,right,675,1
nuerk_2005_008,78,3,left,534,1
nuerk_2005_008,79,1,left,705,1
nuerk_2005_008,80,8,right,637,1
nuerk_2005_008,81,0,right,528,1
nuerk_2005_008,82,0,right,515,1
nuerk_2005_008,83,9,left,765,1
nuerk_2005_008,84,2,right,535,1
nuerk_2005_008,85,6,right,724,1
nuerk_2005_008,86,8,right,579,1
nuerk_2005_008,87,4,right,602,1
nuerk_2005_008,88,9,left,1036,1
nuerk_2005_008,89,2,right,484,1
nuerk_2005_008,90,1,left,749,1
nuerk_2005_008,91,5,left,686,1
nuerk_2005_008,92,3,left,665,1
nuerk_2005_008,93,6,right,665,1
nuerk_2005_008,94,2,right,998,1
nuerk_2005_008,95,7,left,586,1
nuerk_2005_008,96,5,left,649,1
nuerk_2005_008,97,4,right,602,1
nuerk_2005_008,98,1,left,690,1
nuerk_2005_008,99,7,left,558,1
nuerk_2005_008,100,0,right,572,1
nuerk_2005_008,101,3,right,660,1
nuerk_2005_008,102,5,right,589,1
nuerk_2005_008,103,6,left,600,1
nuerk_2005_008,104,7,right,750,1
nuerk_2005_008,105,6,left,572,1
nuerk_2005_008,106,3,right,518,1
nuerk_2005_008,107,5,right,644,1
nuerk_2005_008,108,2,left,490,1
nuerk_2005_008,109,2,left,615,1
nuerk_2005_008,110,0,left,684,1
nuerk_2005_008,111,1,right,694,1
nuerk_2005_008,112,7,right,983,1
nuerk_2005_008,113,1,right,518,0
nuerk_2005_008,114,9,right,673,1
nuerk_2005_008,115,6,left,735,1
nuerk_2005_008,116,0,left,620,1
nuerk_2005_008,117,6,left,847,1
nuerk_2005_008,118,1,right,745,1
nuerk_2005_008,119,9,right,825,1
nuerk_2005_008,120,8,left,620,1
nuerk_2005_008,121,8,left,834,1
nuerk_2005_008,122,7,right,809,1
nuerk_2005_008,123,9,right,835,1
nuerk_2005_008,124,1,right,897,1
nuerk_2005_008,125,3,right,775,1
nuerk_2005_008,126,5,right,767,1
nuerk_2005_008,127,4,left,570,1
nuerk_2005_008,128,0,left,731,1
nuerk_2005_008,129,5,right,599,1
nuerk_2005_008,130,7,right,821,1
nuerk_2005_008,131,3,right,604,1
nuerk_2005_008,132,9,right,667,1
nuerk_2005_008,133,6,left,613,1
nuerk_2005_008,134,9,right,750,1
nuerk_2005_008,135,5,right,546,1
nuerk_2005_008,136,2,left,594,1
nuerk_2005_008,137,4,left,575,1
nuerk_2005_008,138,6,left,678,1
nuerk_2005_008,139,8,left,672,1
nuerk_2005_008,140,8,left,791,1
nuerk_2005_008,141,9,right,820,1
nuerk_2005_008,142,9,right,561,1
nuerk_2005_008,143,4,left,790,1
nuerk_2005_008,144,2,left,688,1
nuerk_2005_008,145,4,left,700,1
nuerk_2005_008,146,1,right,705,1
nuerk_2005_008,147,7,right,725,1
nuerk_2005_008,148,5,right,811,1
nuerk_2005_008,149,2,left,805,1
nuerk_2005_008,150,7,right,734,1
nuerk_2005_008,151,5,right,1026,1
nuerk_2005_008,152,8,left,540,1
nuerk_2005_008,153,4,left,630,1
nuerk_2005_008,154,2,left,543,1
nuerk_2005_008,155,0,left,603,1
nuerk_2005_008,156,3,right,694,1
nuerk_2005_008,157,1,right,709,1
nuerk_2005_008,158,1,right,613,1
nuerk_2005_008,159,6,left,663,1
nuerk_2005_008,160,8,left,690,1
nuerk_2005_008,161,8,left,660,1
nuerk_2005_008,162,3,right,762,1
nuerk_2005_008,163,6,left,1108,1
nuerk_2005_008,164,3,right,644,1
nuerk_2005_008,165,3,right,782,1
nuerk_2005_008,166,0,left,517,1
nuerk_2005_008,167,2,left,800,1
nuerk_2005_008,168,9,right,662,1
nuerk_2005_008,169,0,left,503,1
nuerk_2005_008,170,0,left,704,1
nuerk_2005_008,171,2,left,951,1
nuerk_2005_008,172,5,right,621,1
nuerk_2005_008,173,5,right,904,0
nuerk_2005_008,174,2,left,1009,1
nuerk_2005_008,175,9,right,618,1
nuerk_2005_008,176,1,right,674,1
nuerk_2005_008,177,0,left,576,1
nuerk_2005_008,178,7,right,599,1
nuerk_2005_008,179,7,right,598,1
nuerk_2005_008,180,0,left,485,1
nuerk_2005_008,181,8,left,577,1
nuerk_2005_008,182,4,left,554,1
nuerk_2005_008,183,4,left,519,1
nuerk_2005_008,184,4,left,672,1
nuerk_2005_008,185,2,left,602,1
nuerk_2005_008,186,8,left,545,1
nuerk_2005_008,187,0,left,606,1
nuerk_2005_008,188,1,right,628,1
nuerk_2005_008,189,3,right,616,1
nuerk_2005_008,190,6,left,549,1
nuerk_2005_008,191,3,right,891,1
nuerk_2005_008,192,8,left,575,1
nuerk_2005_008,193,1,right,579,1
nuerk_2005_008,194,4,left,500,1
nuerk_2005_008,195,5,right,603,1
nuerk_2005_008,196,7,right,665,1
nuerk_2005_008,197,4,left,674,1
nuerk_2005_008,198,9,right,618,1
nuerk_2005_008,199,6,left,542,1
nuerk_2005_008,200,7,right,619,1
nuerk_2005_009,1,1,left,375,1
nuerk_2005_009,2,4,right,377,1
nuerk_2005_009,3,5,left,381,1
nuerk_2005_009,4,6,right,430,1
nuerk_2005_009,5,2,right,370,0
nuerk_2005_009,6,2,right,371,1
nuerk_2005_009,7,7,left,381,1
nuerk_2005_009,8,3,left,413,1
nuerk_2005_009,9,7,left,358,1
nuerk_2005_009,10,3,left,338,1
nuerk_2005_009,11,0,right,600,1
nuerk_2005_009,12,9,left,386,1
nuerk_2005_009,13,3,left,403,1
nuerk_2005_009,14,0,right,374,1
nuerk_2005_009,15,4,right,520,1
nuerk_2005_009,16,6,right,358,1
nuerk_2005_009,17,6,right,342,1
nuerk_2005_009,18,0,right,414,0
nuerk_2005_009,19,8,right,491,1
nuerk_2005_009,20,5,left,385,1
nuerk_2005_009,21,3,left,332,1
nuerk_2005_009,22,1,left,328,1
nuerk_2005_009,23,9,left,449,1
nuerk_2005_009,24,9,left,339,1
nuerk_2005_009,25,1,left,426,1
nuerk_2005_009,26,6,right,464,1
nuerk_2005_009,27,6,right,319,1
nuerk_2005_009,28,2,right,415,1
nuerk_2005_009,29,2,right,348,1
nuerk_2005_009,30,5,left,425,1
nuerk_2005_009,31,0,right,346,0
nuerk_2005_009,32,5,left,577,1
nuerk_2005_009,33,0,right,347,0
nuerk_2005_009,34,1,left,438,1
nuerk_2005_009,35,2,right,442,1
nuerk_2005_009,36,6,right,375,1
nuerk_2005_009,37,3,left,476,1
nuerk_2005_009,38,7,left,375,1
nuerk_2005_009,39,2,right,420,1
nuerk_2005_009,40,1,left,485,1
nuerk_2005_009,41,8,right,434,1
nuerk_2005_009,42,5,left,374,1
nuerk_2005_009,43,7,left,503,1
nuerk_2005_009,44,6,right,404,1
nuerk_2005_009,45,0,right,390,1
nuerk_2005_009,46,4,right,358,1
nuerk_2005_009,47,8,right,342,1
nuerk_2005_009,48,7,left,425,1
nuerk_2005_009,49,6,right,463,1
nuerk_2005_009,50,5,left,387,1
nuerk_2005_009,51,4,right,398,1
nuerk_2005_009,52,8,right,342,1
nuerk_2005_009,53,8,right,302,1
nuerk_2005_009,54,0,right,385,0
nuerk_2005_009,55,1,left,526,1
nuerk_2005_009,56,1,left,293,1
nuerk_2005_009,57,7,left,469,1
nuerk_2005_009,58,3,left,386,0
nuerk_2005_009,59,3,left,408,1
nuerk_2005_009,60,9,left,251,1
nuerk_2005_009,61,6,right,342,0
nuerk_2005_009,62,1,left,386,1
nuerk_2005_009,63,9,left,504,1
nuerk_2005_009,64,4,right,405,1
nuerk_2005_009,65,7,left,533,1
nuerk_2005_009,66,9,left,430,1
nuerk_2005_009,67,8,right,497,1
nuerk_2005_009,68,5,left,453,1
nuerk_2005_009,69,4,right,374,1
nuerk_2005_009,70,4,right,508,1
nuerk_2005_009,71,3,left,382,1
nuerk_2005_009,72,4,right,498,1
nuerk_2005_009,73,2,right,368,0
nuerk_2005_009,74,0,right,521,1
nuerk_2005_009,75,1,left,371,1
nuerk_2005_009,76,9,left,356,1
nuerk_2005_009,77,3,left,347,1
nuerk_2005_009,78,5,left,453,1
nuerk_2005_009,79,5,left,401,1
nuerk_2005_009,80,2,right,459,1
nuerk_2005_009,81,0,right,339,0
nuerk_2005_009,82,8,right,443,1
nuerk_2005_009,83,6,right,405,1
nuerk_2005_009,84,2,right,348,1
nuerk_2005_009,85,3,left,440,1
nuerk_2005_009,86,4,right,472,1
nuerk_2005_009,87,2,right,298,1
nuerk_2005_009,88,0,right,456,1
nuerk_2005_009,89,5,left,395,1
nuerk_2005_009,90,9,left,360,1
nuerk_2005_009,91,7,left,383,1
nuerk_2005_009,92,8,right,443,1
nuerk_2005_009,93,4,right,505,1
nuerk_2005_009,94,7,left,399,1
nuerk_2005_009,95,9,left,484,1
nuerk_2005_009,96,7,left,315,1
nuerk_2005_009,97,9,left,345,1
nuerk_2005_009,98,8,right,362,1
nuerk_2005_009,99,1,left,369,0
nuerk_2005_009,100,8,right,357,1
nuerk_2005_009,101,7,right,493,1
nuerk_2005_009,102,3,right,461,1
nuerk_2005_009,103,9,right,461,1
nuerk_2005_009,104,8,left,453,1
nuerk_2005_009,105,6,left,473,1
nuerk_2005_009,106,5,right,505,1
nuerk_2005_009,107,6,left,491,1
nuerk_2005_009,108,2,left,442,1
nuerk_2005_009,109,0,left,415,1
nuerk_2005_009,110,8,left,374,1
nuerk_2005_009,111,7,right,419,1
nuerk_2005_009,112,3,right,415,1
nuerk_2005_009,113,5,right,464,1
nuerk_2005_009,114,1,right,463,1
nuerk_2005_009,115,4,left,402,1
nuerk_2005_009,116,3,right,504,1
nuerk_2005_009,117,8,left,432,1
nuerk_2005_009,118,2,left,371,1
nuerk_2005_009,119,8,left,298,1
nuerk_2005_009,120,1,right,457,1
nuerk_2005_009,121,3,right,370,1
nuerk_2005_009,122,2,left,370,1
nuerk_2005_009,123,5,right,340,0
nuerk_2005_009,124,6,left,434,1
nuerk_2005_009,125,4,left,316,1
nuerk_2005_009,126,9,right,421,1
nuerk_2005_009,127,0,left,485,1
nuerk_2005_009,128,5,right,466,1
nuerk_2005_009,129,6,left,432,1
nuerk_2005_009,130,3,right,432,1
nuerk_2005_009,131,9,right,457,1
nuerk_2005_009,132,9,right,499,1
nuerk_2005_009,133,1,right,487,1
nuerk_2005_009,134,9,right,369,1
nuerk_2005_009,135,6,left,442,1
nuerk_2005_009,136,1,right,489,1
nuerk_2005_009,137,7,right,444,1
nuerk_2005_009,138,1,right,564,1
nuerk_2005_009,139,7,right,390,1
nuerk_2005_009,140,8,left,409,1
nuerk_2005_009,141,9,right,399,1
nuerk_2005_009,142,0,left,427,1
nuerk_2005_009,143,4,left,367,1
nuerk_2005_009,144,6,left,409,1
nuerk_2005_009,145,2,left,340,1
nuerk_2005_009,146,5,right,442,1
nuerk_2005_009,147,3,right,346,1
nuerk_2005_009,148,4,left,434,1
nuerk_2005_009,149,1,right,506,1
nuerk_2005_009,150,3,right,378,1
nuerk_2005_009,151,3,right,327,1
nuerk_2005_009,152,4,left,463,1
nuerk_2005_009,153,7,right,418,1
nuerk_2005_009,154,8,left,469,1
nuerk_2005_009,155,8,left,353,1
nuerk_2005_009,156,5,right,417,1
nuerk_2005_009,157,6,left,555,1
nuerk_2005_009,158,1,right,448,0
nuerk_2005_009,159,2,left,452,1
nuerk_2005_009,160,5,right,475,1
nuerk_2005_009,161,0,left,378,0
nuerk_2005_009,162,4,left,454,1
nuerk_2005_009,163,0,left,389,1
nuerk_2005_009,164,7,right,379,1
nuerk_2005_009,165,6,left,370,1
nuerk_2005_009,166,9,right,487,1
nuerk_2005_009,167,2,left,426,1
nuerk_2005_009,168,3,right,421,1
nuerk_2005_009,169,0,left,371,1
nuerk_2005_009,170,2,left,384,1
nuerk_2005_009,171,1,right,404,1
nuerk_2005_009,172,5,right,449,1
nuerk_2005_009,173,7,right,458,1
nuerk_2005_009,174,7,right,356,1
nuerk_2005_009,175,8,left,362,1
nuerk_2005_009,176,9,right,459,1
nuerk_2005_009,177,0,left,528,1
nuerk_2005_009,178,9,right,384,1
nuerk_2005_009,179,6,left,434,0
nuerk_2005_009,180,8,left,375,1
nuerk_2005_009,181,2,left,360,1
nuerk_2005_009,182,9,right,414,1
nuerk_2005_009,183,0,left,447,1
nuerk_2005_009,184,4,left,375,1
nuerk_2005_009,185,5,right,434,1
nuerk_2005_009,186,4,left,361,1
nuerk_2005_009,187,6,left,384,1
nuerk_2005_009,188,1,right,376,1
nuerk_2005_009,189,2,left,333,1
nuerk_2005_009,190,2,left,342,1
nuerk_2005_009,191,7,right,389,1
nuerk_2005_009,192,1,right,372,1
nuerk_2005_009,193,0,left,371,1
nuerk_2005_009,194,5,right,399,0
nuerk_2005_009,195,3,right,389,0
nuerk_2005_009,196,4,left,463,1
nuerk_2005_009,197,7,right,519,1
nuerk_2005_009,198,0,left,379,1
nuerk_2005_009,199,4,left,353,1
nuerk_2005_009,200,8,left,387,1
nuerk_2005_010,1,0,left,860,1
nuerk_2005_010,2,9,right,444,1
nuerk_2005_010,3,1,right,637,1
nuerk_2005_010,4,7,right,558,1
nuerk_2005_010,5,5,right,457,1
nuerk_2005_010,6,1,right,427,1
nuerk_2005_010,7,9,right,413,1
nuerk_2005_010,8,1,right,419,1
nuerk_2005_010,9,3,right,415,1
nuerk_2005_010,10,2,left,419,1
nuerk_2005_010,11,0,left,484,1
nuerk_2005_010,12,6,left,461,1
nuerk_2005_010,13,4,left,356,1
nuerk_2005_010,14,4,left,347,1
nuerk_2005_010,15,6,left,410,1
nuerk_2005_010,16,6,left,327,1
nuerk_2005_010,17,5,right,412,1
nuerk_2005_010,18,1,right,374,1
nuerk_2005_010,19,2,left,432,1
nuerk_2005_010,20,6,left,863,1
nuerk_2005_010,21,4,left,445,1
nuerk_2005_010,22,3,right,406,1
nuerk_2005_010,23,2,left,420,1
nuerk_2005_010,24,9,right,747,1
nuerk_2005_010,25,3,right,443,1
nuerk_2005_010,26,9,right,462,1
nuerk_2005_010,27,3,right,389,1
nuerk_2005_010,28,3,right,372,1
nuerk_2005_010,29,7,right,375,1
nuerk_2005_010,30,9,right,393,1
nuerk_2005_010,31,4,left,387,1
nuerk_2005_010,32,1,right,500,1
nuerk_2005_010,33,2,left,327,1
nuerk_2005_010,34,7,right,441,1
nuerk_2005_010,35,3,right,432,1
nuerk_2005_010,36,8,left,733,1
nuerk_2005_010,37,0,left,489,1
nuerk_2005_010,38,8,left,0,1
nuerk_2005_010,39,6,left,583,1
nuerk_2005_010,40,2,left,417,1
nuerk_2005_010,41,0,left,396,1
nuerk_2005_010,42,3,right,435,1
nuerk_2005_010,43,8,left,812,0
nuerk_2005_010,44,1,right,0,1
nuerk_2005_010,45,0,left,926,1
nuerk_2005_010,46,0,left,347,1
nuerk_2005_010,47,8,left,642,1
nuerk_2005_010,48,2,left,444,1
nuerk_2005_010,49,9,right,521,1
nuerk_2005_010,50,5,right,475,1
nuerk_2005_010,51,4,left,549,1
nuerk_2005_010,52,5,right,660,1
nuerk_2005_010,53,9,right,474,1
nuerk_2005_010,54,4,left,635,1
nuerk_2005_010,55,5,right,392,1
nuerk_2005_010,56,5,right,548,1
nuerk_2005_010,57,0,left,383,1
nuerk_2005_010,58,1,right,462,1
nuerk_2005_010,59,8,left,633,1
nuerk_2005_010,60,4,left,489,1
nuerk_2005_010,61,5,right,559,1
nuerk_2005_010,62,9,right,459,1
nuerk_2005_010,63,7,right,443,1
nuerk_2005_010,64,8,left,389,1
nuerk_2005_010,65,5,right,400,1
nuerk_2005_010,66,4,left,413,1
nuerk_2005_010,67,7,right,448,1
nuerk_2005_010,68,1,right,342,1
nuerk_2005_010,69,8,left,372,1
nuerk_2005_010,70,8,left,430,1
nuerk_2005_010,71,4,left,500,1
nuerk_2005_010,72,0,left,427,1
nuerk_2005_010,73,5,right,413,1
nuerk_2005_010,74,6,left,432,1
nuerk_2005_010,75,3,right,836,1
nuerk_2005_010,76,3,right,528,1
nuerk_2005_010,77,7,right,444,1
nuerk_2005_010,78,2,left,432,1
nuerk_2005_010,79,9,right,475,1
nuerk_2005_010,80,0,left,462,1
nuerk_2005_010,81,2,left,473,1
nuerk_2005_010,82,7,right,390,1
nuerk_2005_010,83,6,left,530,1
nuerk_2005_010,84,5,right,401,1
nuerk_2005_010,85,9,right,532,1
nuerk_2005_010,86,8,left,416,1
nuerk_2005_010,87,7,right,369,1
nuerk_2005_010,88,0,left,470,1
nuerk_2005_010,89,6,left,413,1
nuerk_2005_010,90,1,right,361,1
nuerk_2005_010,91,2,left,400,1
nuerk_2005_010,92,1,right,344,1
nuerk_2005_010,93,7,right,406,1
nuerk_2005_010,94,6,left,363,1
nuerk_2005_010,95,8,left,531,1
nuerk_2005_010,96,2,left,444,1
nuerk_2005_010,97,3,right,405,1
nuerk_2005_010,98,4,left,433,1
nuerk_2005_010,99,7,right,462,1
nuerk_2005_010,100,6,left,402,1
nuerk_2005_010,101,2,right,454,1
nuerk_2005_010,102,7,left,461,1
nuerk_2005_010,103,3,left,328,1
nuerk_2005_010,104,4,right,559,1
nuerk_2005_010,105,8,right,429,1
nuerk_2005_010,106,6,right,473,1
nuerk_2005_010,107,6,right,333,1
nuerk_2005_010,108,4,right,492,1
nuerk_2005_010,109,4,right,361,1
nuerk_2005_010,110,5,left,399,1
nuerk_2005_010,111,1,left,413,1
nuerk_2005_010,112,6,right,504,1
nuerk_2005_010,113,3,left,448,1
nuerk_2005_010,114,3,left,383,1
nuerk_2005_010,115,5,left,560,1
nuerk_2005_010,116,0,right,517,1
nuerk_2005_010,117,6,right,470,1
nuerk_2005_010,118,7,left,544,1
nuerk_2005_010,119,0,right,491,1
nuerk_2005_010,120,5,left,661,1
nuerk_2005_010,121,2,right,446,1
nuerk_2005_010,122,4,right,466,1
nuerk_2005_010,123,2,right,350,1
nuerk_2005_010,124,9,left,529,1
nuerk_2005_010,125,8,right,429,1
nuerk_2005_010,126,7,left,514,1
nuerk_2005_010,127,9,left,360,1
nuerk_2005_010,128,0,right,444,1
nuerk_2005_010,129,6,right,565,1
nuerk_2005_010,130,1,left,399,1
nuerk_2005_010,131,5,left,399,1
nuerk_2005_010,132,7,left,354,1
nuerk_2005_010,133,7,left,331,1
nuerk_2005_010,134,1,left,356,1
nuerk_2005_010,135,1,left,304,1
nuerk_2005_010,136,0,right,362,1
nuerk_2005_010,137,4,right,389,1
nuerk_2005_010,138,6,right,371,1
nuerk_2005_010,139,0,right,360,1
nuerk_2005_010,140,0,right,300,1
nuerk_2005_010,141,8,right,475,1
nuerk_2005_010,142,8,right,320,1
nuerk_2005_010,143,6,right,315,1
nuerk_2005_010,144,7,left,390,1
nuerk_2005_010,145,5,left,341,1
nuerk_2005_010,146,6,right,431,1
nuerk_2005_010,147,4,right,504,1
nuerk_2005_010,148,5,left,462,1
nuerk_2005_010,149,8,right,418,1
nuerk_2005_010,150,2,right,471,1
nuerk_2005_010,151,8,right,375,1
nuerk_2005_010,152,2,right,348,1
nuerk_2005_010,153,1,left,384,1
nuerk_2005_010,154,2,right,450,1
nuerk_2005_010,155,5,left,918,1
nuerk_2005_010,156,6,right,471,1
nuerk_2005_010,157,5,left,416,1
nuerk_2005_010,158,9,left,512,1
nuerk_2005_010,159,1,left,430,1
nuerk_2005_010,160,7,left,384,1
nuerk_2005_010,161,4,right,461,1
nuerk_2005_010,162,3,left,359,1
nuerk_2005_010,163,0,right,516,1
nuerk_2005_010,164,9,left,443,1
nuerk_2005_010,165,8,right,476,1
nuerk_2005_010,166,4,right,920,1
nuerk_2005_010,167,9,left,525,1
nuerk_2005_010,168,3,left,448,1
nuerk_2005_010,169,5,left,484,1
nuerk_2005_010,170,3,left,561,1
nuerk_2005_010,171,3,left,386,1
nuerk_2005_010,172,0,right,465,1
nuerk_2005_010,173,1,left,418,1
nuerk_2005_010,174,8,right,457,1
nuerk_2005_010,175,7,left,310,1
nuerk_2005_010,176,2,right,430,1
nuerk_2005_010,177,1,left,298,1
nuerk_2005_010,178,9,left,368,1
nuerk_2005_010,179,2,right,530,1
nuerk_2005_010,180,7,left,326,1
nuerk_2005_010,181,8,right,441,1
nuerk_2005_010,182,9,left,329,1
nuerk_2005_010,183,4,right,458,1
nuerk_2005_010,184,1,left,311,1
nuerk_2005_010,185,9,left,530,1
nuerk_2005_010,186,2,right,560,1
nuerk_2005_010,187,4,right,532,1
nuerk_2005_010,188,3,left,401,1
nuerk_2005_010,189,3,left,314,1
nuerk_2005_010,190,5,left,402,1
nuerk_2005_010,191,9,left,416,1
nuerk_2005_010,192,9,left,331,1
nuerk_2005_010,193,7,left,357,1
nuerk_2005_010,194,2,right,413,1
nuerk_2005_010,195,3,left,518,1
nuerk_2005_010,196,0,right,415,1
nuerk_2005_010,197,6,right,449,1
nuerk_2005_010,198,1,left,414,1
nuerk_2005_010,199,0,right,448,1
nuerk_2005_010,200,8,right,502,1
nuerk_2005_011,1,6,left,464,0
nuerk_2005_011,2,2,left,474,1
nuerk_2005_011,3,8,left,416,1
nuerk_2005_011,4,6,left,364,1
nuerk_2005_011,5,9,right,401,0
nuerk_2005_011,6,7,right,488,1
nuerk_2005_011,7,8,left,469,1
nuerk_2005_011,8,1,right,556,1
nuerk_2005_011,9,5,right,440,1
nuerk_2005_011,10,2,left,614,1
nuerk_2005_011,11,7,right,433,1
nuerk_2005_011,12,4,left,502,1
nuerk_2005_011,13,3,right,546,1
nuerk_2005_011,14,7,right,768,1
nuerk_2005_011,15,0,left,410,1
nuerk_2005_011,16,2,left,441,1
nuerk_2005_011,17,3,right,559,1
nuerk_2005_011,18,8,left,542,1
nuerk_2005_011,19,4,left,456,1
nuerk_2005_011,20,6,left,467,1
nuerk_2005_011,21,1,right,440,1
nuerk_2005_011,22,5,right,460,1
nuerk_2005_011,23,8,left,509,1
nuerk_2005_011,24,1,right,412,1
nuerk_2005_011,25,6,left,488,1
nuerk_2005_011,26,1,right,513,1
nuerk_2005_011,27,9,right,490,1
nuerk_2005_011,28,8,left,457,1
nuerk_2005_011,29,5,right,550,1
nuerk_2005_011,30,6,left,415,1
nuerk_2005_011,31,9,right,461,1
nuerk_2005_011,32,9,right,400,1
nuerk_2005_011,33,3,right,488,1
nuerk_2005_011,34,0,left,410,1
nuerk_2005_011,35,8,left,830,1
nuerk_2005_011,36,6,left,528,1
nuerk_2005_011,37,3,right,457,1
nuerk_2005_011,38,1,right,464,1
nuerk_2005_011,39,5,right,463,1
nuerk_2005_011,40,0,left,719,1
nuerk_2005_011,41,2,left,442,0
nuerk_2005_011,42,2,left,415,1
nuerk_2005_011,43,1,right,550,1
nuerk_2005_011,44,5,right,614,0
nuerk_2005_011,45,3,right,404,1
nuerk_2005_011,46,3,right,448,1
nuerk_2005_011,47,0,left,469,1
nuerk_2005_011,48,9,right,607,0
nuerk_2005_011,49,3,right,527,1
nuerk_2005_011,50,4,left,511,1
nuerk_2005_011,51,8,left,501,0
nuerk_2005_011,52,1,right,647,1
nuerk_2005_011,53,4,left,799,1
nuerk_2005_011,54,0,left,630,0
nuerk_2005_011,55,8,left,729,1
nuerk_2005_011,56,5,right,602,1
nuerk_2005_011,57,3,right,546,1
nuerk_2005_011,58,1,right,392,1
nuerk_2005_011,59,4,left,488,1
nuerk_2005_011,60,7,right,513,1
nuerk_2005_011,61,6,left,473,1
nuerk_2005_011,62,2,left,416,1
nuerk_2005_011,63,9,right,492,1
nuerk_2005_011,64,9,right,425,0
nuerk_2005_011,65,8,left,546,1
nuerk_2005_011,66,0,left,621,1
nuerk_2005_011,67,7,right,415,1
nuerk_2005_011,68,5,right,434,1
nuerk_2005_011,69,0,left,474,1
nuerk_2005_011,70,6,left,490,1
nuerk_2005_011,71,7,right,515,1
nuerk_2005_011,72,7,right,464,1
nuerk_2005_011,73,0,left,879,1
nuerk_2005_011,74,3,right,485,1
nuerk_2005_011,75,4,left,470,1
nuerk_2005_011,76,4,left,559,1
nuerk_2005_011,77,9,right,498,1
nuerk_2005_011,78,7,right,587,1
nuerk_2005_011,79,1,right,469,1
nuerk_2005_011,80,3,right,371,1
nuerk_2005_011,81,2,left,471,1
nuerk_2005_011,82,2,left,485,1
nuerk_2005_011,83,2,left,432,1
nuerk_2005_011,84,5,right,676,1
nuerk_2005_011,85,5,right,410,1
nuerk_2005_011,86,0,left,458,1
nuerk_2005_011,87,4,left,505,1
nuerk_2005_011,88,5,right,491,1
nuerk_2005_011,89,9,right,546,1
nuerk_2005_011,90,6,left,506,1
nuerk_2005_011,91,7,right,521,1
nuerk_2005_011,92,4,left,486,1
nuerk_2005_011,93,4,left,436,1
nuerk_2005_011,94,9,right,493,1
nuerk_2005_011,95,0,left,628,1
nuerk_2005_011,96,1,right,442,1
nuerk_2005_011,97,2,left,385,1
nuerk_2005_011,98,7,right,432,0
nuerk_2005_011,99,8,left,457,1
nuerk_2005_011,100,6,left,482,1
nuerk_2005_011,101,8,right,463,1
nuerk_2005_011,102,9,left,401,1
nuerk_2005_011,103,0,right,426,1
nuerk_2005_011,104,7,left,404,1
nuerk_2005_011,105,3,left,431,1
nuerk_2005_011,106,4,right,473,1
nuerk_2005_011,107,1,left,402,1
nuerk_2005_011,108,1,left,384,1
nuerk_2005_011,109,7,left,446,1
nuerk_2005_011,110,9,left,451,1
nuerk_2005_011,111,3,left,341,1
nuerk_2005_011,112,2,right,473,1
nuerk_2005_011,113,9,left,417,1
nuerk_2005_011,114,9,left,375,1
nuerk_2005_011,115,7,left,416,1
nuerk_2005_011,116,5,left,434,1
nuerk_2005_011,117,2,right,433,1
nuerk_2005_011,118,6,right,577,1
nuerk_2005_011,119,9,left,728,1
nuerk_2005_011,120,2,right,701,1
nuerk_2005_011,121,3,left,385,1
nuerk_2005_011,122,6,right,333,1
nuerk_2005_011,123,5,left,358,1
nuerk_2005_011,124,3,left,454,1
nuerk_2005_011,125,3,left,373,1
nuerk_2005_011,126,5,left,353,1
nuerk_2005_011,127,5,left,415,1
nuerk_2005_011,128,6,right,420,1
nuerk_2005_011,129,2,right,386,1
nuerk_2005_011,130,3,left,0,0
nuerk_2005_011,131,7,left,390,1
nuerk_2005_011,132,0,right,646,1
nuerk_2005_011,133,5,left,462,1
nuerk_2005_011,134,1,left,473,1
nuerk_2005_011,135,7,left,415,1
nuerk_2005_011,136,1,left,358,1
nuerk_2005_011,137,4,right,543,1
nuerk_2005_011,138,0,right,404,1
nuerk_2005_011,139,2,right,333,1
nuerk_2005_011,140,8,right,317,1
nuerk_2005_011,141,8,right,325,1
nuerk_2005_011,142,4,right,338,1
nuerk_2005_011,143,8,right,328,1
nuerk_2005_011,144,3,left,409,1
nuerk_2005_011,145,4,right,400,1
nuerk_2005_011,146,5,left,484,1
nuerk_2005_011,147,2,right,417,0
nuerk_2005_011,148,8,right,397,1
nuerk_2005_011,149,5,left,361,1
nuerk_2005_011,150,0,right,430,1
nuerk_2005_011,151,4,right,358,1
nuerk_2005_011,152,8,right,399,1
nuerk_2005_011,153,0,right,326,1
nuerk_2005_011,154,7,left,423,1
nuerk_2005_011,155,1,left,502,1
nuerk_2005_011,156,3,left,381,1
nuerk_2005_011,157,5,left,340,1
nuerk_2005_011,158,3,left,325,1
nuerk_2005_011,159,0,right,430,1
nuerk_2005_011,160,2,right,371,1
nuerk_2005_011,161,6,right,373,1
nuerk_2005_011,162,0,right,360,1
nuerk_2005_011,163,6,right,357,1
nuerk_2005_011,164,9,left,525,1
nuerk_2005_011,165,4,right,489,0
nuerk_2005_011,166,1,left,507,1
nuerk_2005_011,167,1,left,396,1
nuerk_2005_011,168,4,right,368,1
nuerk_2005_011,169,4,right,394,1
nuerk_2005_011,170,7,left,460,1
nuerk_2005_011,171,0,right,385,1
nuerk_2005_011,172,4,right,376,1
nuerk_2005_011,173,6,right,355,1
nuerk_2005_011,174,2,right,333,1
nuerk_2005_011,175,7,left,445,1
nuerk_2005_011,176,9,left,633,1
nuerk_2005_011,177,8,right,490,1
nuerk_2005_011,178,5,left,413,1
nuerk_2005_011,179,7,left,718,1
nuerk_2005_011,180,8,right,658,1
nuerk_2005_011,181,0,right,528,1
nuerk_2005_011,182,2,right,514,1
nuerk_2005_011,183,1,left,432,1
nuerk_2005_011,184,1,left,557,1
nuerk_2005_011,185,3,left,480,0
nuerk_2005_011,186,5,left,313,1
nuerk_2005_011,187,6,right,532,1
nuerk_2005_011,188,1,left,445,1
nuerk_2005_011,189,6,right,504,1
nuerk_2005_011,190,0,right,477,1
nuerk_2005_011,191,7,left,540,1
nuerk_2005_011,192,9,left,426,1
nuerk_2005_011,193,6,right,569,1
nuerk_2005_011,194,2,right,442,1
nuerk_2005_011,195,6,right,461,1
nuerk_2005_011,196,8,right,359,1
nuerk_2005_011,197,4,right,327,1
nuerk_2005_011,198,9,left,424,1
nuerk_2005_011,199,9,left,938,0
nuerk_2005_011,200,8,right,1264,1
nuerk_2005_012,1,3,left,563,1
nuerk_2005_012,2,8,right,648,1
nuerk_2005_012,3,0,right,529,0
nuerk_2005_012,4,5,left,457,1
nuerk_2005_012,5,3,left,549,1
nuerk_2005_012,6,3,left,441,1
nuerk_2005_012,7,6,right,703,0
nuerk_2005_012,8,1,left,647,1
nuerk_2005_012,9,7,left,468,1
nuerk_2005_012,10,5,left,514,1
nuerk_2005_012,11,3,left,488,1
nuerk_2005_012,12,4,right,471,1
nuerk_2005_012,13,2,right,485,1
nuerk_2005_012,14,1,left,434,1
nuerk_2005_012,15,7,left,719,1
nuerk_2005_012,16,7,left,457,1
nuerk_2005_012,17,9,left,511,1
nuerk_2005_012,18,4,right,560,1
nuerk_2005_012,19,7,left,473,1
nuerk_2005_012,20,1,left,459,1
nuerk_2005_012,21,6,right,371,1
nuerk_2005_012,22,2,right,474,1
nuerk_2005_012,23,6,right,405,1
nuerk_2005_012,24,2,right,435,1
nuerk_2005_012,25,2,right,378,1
nuerk_2005_012,26,9,left,469,1
nuerk_2005_012,27,4,right,502,1
nuerk_2005_012,28,9,left,446,0
nuerk_2005_012,29,0,right,600,1
nuerk_2005_012,30,1,left,515,1
nuerk_2005_012,31,1,left,446,1
nuerk_2005_012,32,4,right,436,1
nuerk_2005_012,33,6,right,393,1
nuerk_2005_012,34,0,right,416,0
nuerk_2005_012,35,2,right,528,1
nuerk_2005_012,36,6,right,929,1
nuerk_2005_012,37,5,left,572,1
nuerk_2005_012,38,0,right,590,1
nuerk_2005_012,39,8,right,575,1
nuerk_2005_012,40,0,right,492,1
nuerk_2005_012,41,5,left,532,1
nuerk_2005_012,42,5,left,488,1
nuerk_2005_012,43,8,right,596,1
nuerk_2005_012,44,4,right,542,1
nuerk_2005_012,45,7,left,1109,1
nuerk_2005_012,46,7,left,442,1
nuerk_2005_012,47,2,right,431,1
nuerk_2005_012,48,1,left,504,1
nuerk_2005_012,49,3,left,504,1
nuerk_2005_012,50,6,right,418,1
nuerk_2005_012,51,8,right,414,1
nuerk_2005_012,52,3,left,534,1
nuerk_2005_012,53,6,right,939,1
nuerk_2005_012,54,1,left,539,1
nuerk_2005_012,55,9,left,501,0
nuerk_2005_012,56,9,left,603,1
nuerk_2005_012,57,2,right,506,1
nuerk_2005_012,58,5,left,637,1
nuerk_2005_012,59,1,left,559,1
nuerk_2005_012,60,0,right,530,1
nuerk_2005_012,61,8,right,603,1
nuerk_2005_012,62,4,right,492,1
nuerk_2005_012,63,7,left,541,1
nuerk_2005_012,64,8,right,402,1
nuerk_2005_012,65,3,left,570,1
nuerk_2005_012,66,6,right,415,1
nuerk_2005_012,67,1,left,463,1
nuerk_2005_012,68,9,left,427,0
nuerk_2005_012,69,1,left,637,1
nuerk_2005_012,70,7,left,512,1
nuerk_2005_012,71,6,right,489,1
nuerk_2005_012,72,2,right,430,1
nuerk_2005_012,73,8,right,415,1
nuerk_2005_012,74,0,right,494,1
nuerk_2005_012,75,9,left,490,1
nuerk_2005_012,76,4,right,440,1
nuerk_2005_012,77,0,right,416,1
nuerk_2005_012,78,8,right,441,1
nuerk_2005_012,79,4,right,402,1
nuerk_2005_012,80,3,left,545,1
nuerk_2005_012,81,0,right,407,1
nuerk_2005_012,82,7,left,485,0
nuerk_2005_012,83,9,left,563,1
nuerk_2005_012,84,5,left,488,1
nuerk_2005_012,85,4,right,487,1
nuerk_2005_012,86,6,right,625,1
nuerk_2005_012,87,4,right,709,1
nuerk_2005_012,88,9,left,471,1
nuerk_2005_012,89,9,left,544,1
nuerk_2005_012,90,3,left,506,0
nuerk_2005_012,91,7,left,564,1
nuerk_2005_012,92,3,left,532,1
nuerk_2005_012,93,2,right,519,1
nuerk_2005_012,94,5,left,601,1
nuerk_2005_012,95,2,right,632,1
nuerk_2005_012,96,8,right,664,1
nuerk_2005_012,97,5,left,519,1
nuerk_2005_012,98,5,left,528,1
nuerk_2005_012,99,0,right,456,1
nuerk_2005_012,100,8,right,466,1
nuerk_2005_012,101,3,right,621,1
nuerk_2005_012,102,1,right,475,1
nuerk_2005_012,103,9,right,480,1
nuerk_2005_012,104,3,right,444,1
nuerk_2005_012,105,2,left,491,1
nuerk_2005_012,106,7,right,518,1
nuerk_2005_012,107,8,left,572,1
nuerk_2005_012,108,3,right,749,1
nuerk_2005_012,109,3,right,475,1
nuerk_2005_012,110,1,right,565,1
nuerk_2005_012,111,7,right,426,1
nuerk_2005_012,112,7,right,384,1
nuerk_2005_012,113,6,left,505,1
nuerk_2005_012,114,3,right,566,1
nuerk_2005_012,115,5,right,495,1
nuerk_2005_012,116,4,left,535,1
nuerk_2005_012,117,9,right,532,1
nuerk_2005_012,118,0,left,632,1
nuerk_2005_012,119,7,right,534,1
nuerk_2005_012,120,2,left,621,1
nuerk_2005_012,121,8,left,675,1
nuerk_2005_012,122,4,left,505,1
nuerk_2005_012,123,7,right,537,1
nuerk_2005_012,124,3,right,615,1
nuerk_2005_012,125,6,left,497,1
nuerk_2005_012,126,5,right,528,1
nuerk_2005_012,127,2,left,513,1
nuerk_2005_012,128,1,right,546,1
nuerk_2005_012,129,6,left,478,1
nuerk_2005_012,130,7,right,539,1
nuerk_2005_012,131,6,left,471,1
nuerk_2005_012,132,6,left,417,0
nuerk_2005_012,133,8,left,629,1
nuerk_2005_012,134,9,right,560,1
nuerk_2005_012,135,2,left,572,1
nuerk_2005_012,136,5,right,500,1
nuerk_2005_012,137,9,right,504,1
nuerk_2005_012,138,8,left,563,1
nuerk_2005_012,139,6,left,709,0
nuerk_2005_012,140,0,left,745,1
nuerk_2005_012,141,9,right,492,1
nuerk_2005_012,142,4,left,490,1
nuerk_2005_012,143,5,right,588,1
nuerk_2005_012,144,7,right,544,1
nuerk_2005_012,145,6,left,477,1
nuerk_2005_012,146,0,left,536,1
nuerk_2005_012,147,1,right,493,1
nuerk_2005_012,148,9,right,691,1
nuerk_2005_012,149,2,left,488,1
nuerk_2005_012,150,3,right,515,1
nuerk_2005_012,151,9,right,479,1
nuerk_2005_012,152,5,right,474,1
nuerk_2005_012,153,0,left,492,1
nuerk_2005_012,154,1,right,618,1
nuerk_2005_012,155,0,left,384,1
nuerk_2005_012,156,7,right,724,1
nuerk_2005_012,157,3,right,449,1
nuerk_2005_012,158,8,left,558,1
nuerk_2005_012,159,3,right,472,1
nuerk_2005_012,160,2,left,461,1
nuerk_2005_012,161,1,right,426,1
nuerk_2005_012,162,3,right,437,1
nuerk_2005_012,163,0,left,509,1
nuerk_2005_012,164,0,left,443,0
nuerk_2005_012,165,9,right,535,1
nuerk_2005_012,166,8,left,526,1
nuerk_2005_012,167,5,right,451,1
nuerk_2005_012,168,2,left,417,0
nuerk_2005_012,169,1,right,485,1
nuerk_2005_012,170,6,left,711,0
nuerk_2005_012,171,2,left,691,1
nuerk_2005_012,172,2,left,486,1
nuerk_2005_012,173,6,left,512,1
nuerk_2005_012,174,8,left,415,1
nuerk_2005_012,175,8,left,420,1
nuerk_2005_012,176,8,left,384,1
nuerk_2005_012,177,4,left,575,1
nuerk_2005_012,178,4,left,376,1
nuerk_2005_012,179,5,right,432,1
nuerk_2005_012,180,5,right,544,1
nuerk_2005_012,181,5,right,435,1
nuerk_2005_012,182,5,right,393,1
nuerk_2005_012,183,8,left,457,1
nuerk_2005_012,184,9,right,586,1
nuerk_2005_012,185,7,right,495,1
nuerk_2005_012,186,1,right,506,0
nuerk_2005_012,187,7,right,484,1
nuerk_2005_012,188,4,left,475,1
nuerk_2005_012,189,1,right,685,0
nuerk_2005_012,190,4,left,491,1
nuerk_2005_012,191,1,right,591,1
nuerk_2005_012,192,9,right,562,1
nuerk_2005_012,193,4,left,445,1
nuerk_2005_012,194,0,left,563,1
nuerk_2005_012,195,4,left,446,1
nuerk_2005_012,196,0,left,511,1
nuerk_2005_012,197,6,left,489,0
nuerk_2005_012,198,2,left,789,1
nuerk_2005_012,199,0,left,442,1
nuerk_2005_012,200,4,left,371,1
nuerk_2005_013,1,2,right,416,1
nuerk_2005_013,2,3,left,477,1
nuerk_2005_013,3,4,right,368,1
nuerk_2005_013,4,7,left,413,1
nuerk_2005_013,5,8,right,427,1
nuerk_2005_013,6,3,left,454,1
nuerk_2005_013,7,1,left,431,1
nuerk_2005_013,8,4,right,401,1
nuerk_2005_013,9,2,right,368,1
nuerk_2005_013,10,0,right,426,0
nuerk_2005_013,11,0,right,391,1
nuerk_2005_013,12,2,right,402,1
nuerk_2005_013,13,6,right,346,1
nuerk_2005_013,14,2,right,363,1
nuerk_2005_013,15,9,left,460,1
nuerk_2005_013,16,6,right,381,1
nuerk_2005_013,17,0,right,531,1
nuerk_2005_013,18,5,left,561,0
nuerk_2005_013,19,4,right,428,0
nuerk_2005_013,20,0,right,428,1
nuerk_2005_013,21,9,left,456,0
nuerk_2005_013,22,6,right,493,1
nuerk_2005_013,23,3,left,419,0
nuerk_2005_013,24,6,right,472,1
nuerk_2005_013,25,1,left,389,0
nuerk_2005_013,26,1,left,375,1
nuerk_2005_013,27,4,right,333,1
nuerk_2005_013,28,2,right,347,1
nuerk_2005_013,29,0,right,465,1
nuerk_2005_013,30,7,left,504,1
nuerk_2005_013,31,0,right,420,1
nuerk_2005_013,32,7,left,402,0
nuerk_2005_013,33,8,right,474,1
nuerk_2005_013,34,9,left,535,1
nuerk_2005_013,35,5,left,549,0
nuerk_2005_013,36,3,left,455,1
nuerk_2005_013,37,9,left,432,1
nuerk_2005_013,38,2,right,504,1
nuerk_2005_013,39,1,left,517,1
nuerk_2005_013,40,8,right,481,1
nuerk_2005_013,41,6,right,389,1
nuerk_2005_013,42,2,right,399,1
nuerk_2005_013,43,4,right,458,1
nuerk_2005_013,44,4,right,328,1
nuerk_2005_013,45,8,right,398,1
nuerk_2005_013,46,1,left,426,1
nuerk_2005_013,47,3,left,389,1
nuerk_2005_013,48,7,left,325,1
nuerk_2005_013,49,3,left,326,1
nuerk_2005_013,50,3,left,322,1
nuerk_2005_013,51,9,left,445,0
nuerk_2005_013,52,0,right,478,1
nuerk_2005_013,53,8,right,876,1
nuerk_2005_013,54,5,left,409,1
nuerk_2005_013,55,4,right,411,0
nuerk_2005_013,56,5,left,341,1
nuerk_2005_013,57,7,left,471,1
nuerk_2005_013,58,5,left,341,1
nuerk_2005_013,59,7,left,370,1
nuerk_2005_013,60,6,right,503,1
nuerk_2005_013,61,4,right,460,0
nuerk_2005_013,62,3,left,555,1
nuerk_2005_013,63,0,right,419,0
nuerk_2005_013,64,9,left,521,1
nuerk_2005_013,65,8,right,416,1
nuerk_2005_013,66,0,right,336,1
nuerk_2005_013,67,3,left,403,1
nuerk_2005_013,68,8,right,385,1
nuerk_2005_013,69,8,right,417,0
nuerk_2005_013,70,6,right,368,1
nuerk_2005_013,71,2,right,429,1
nuerk_2005_013,72,5,left,483,1
nuerk_2005_013,73,6,right,432,1
nuerk_2005_013,74,0,right,489,1
nuerk_2005_013,75,2,right,343,1
nuerk_2005_013,76,9,left,475,1
nuerk_2005_013,77,5,left,432,1
nuerk_2005_013,78,7,left,384,1
nuerk_2005_013,79,4,right,463,1
nuerk_2005_013,80,1,left,475,1
nuerk_2005_013,81,1,left,446,1
nuerk_2005_013,82,5,left,351,1
nuerk_2005_013,83,1,left,384,1
nuerk_2005_013,84,7,left,604,1
nuerk_2005_013,85,8,right,403,1
nuerk_2005_013,86,3,left,388,1
nuerk_2005_013,87,8,right,370,1
nuerk_2005_013,88,7,left,451,1
nuerk_2005_013,89,9,left,343,0
nuerk_2005_013,90,6,right,433,1
nuerk_2005_013,91,4,right,433,1
nuerk_2005_013,92,5,left,390,0
nuerk_2005_013,93,2,right,458,1
nuerk_2005_013,94,7,left,454,1
nuerk_2005_013,95,9,left,403,1
nuerk_2005_013,96,1,left,414,1
nuerk_2005_013,97,5,left,388,1
nuerk_2005_013,98,9,left,410,1
nuerk_2005_013,99,1,left,456,1
nuerk_2005_013,100,6,right,391,1
nuerk_2005_013,101,1,right,576,1
nuerk_2005_013,102,8,left,404,1
nuerk_2005_013,103,2,left,387,1
nuerk_2005_013,104,8,left,367,1
nuerk_2005_013,105,6,left,438,1
nuerk_2005_013,106,6,left,368,1
nuerk_2005_013,107,2,left,365,1
nuerk_2005_013,108,6,left,355,1
nuerk_2005_013,109,1,right,377,1
nuerk_2005_013,110,6,left,366,1
nuerk_2005_013,111,4,left,383,0
nuerk_2005_013,112,0,left,490,0
nuerk_2005_013,113,1,right,539,1
nuerk_2005_013,114,1,right,343,1
nuerk_2005_013,115,4,left,429,1
nuerk_2005_013,116,6,left,470,1
nuerk_2005_013,117,5,right,429,1
nuerk_2005_013,118,6,left,465,1
nuerk_2005_013,119,8,left,490,1
nuerk_2005_013,120,5,right,429,1
nuerk_2005_013,121,3,right,500,1
nuerk_2005_013,122,8,left,413,1
nuerk_2005_013,123,7,right,456,1
nuerk_2005_013,124,3,right,433,0
nuerk_2005_013,125,3,right,447,1
nuerk_2005_013,126,5,right,368,1
nuerk_2005_013,127,9,right,457,1
nuerk_2005_013,128,9,right,363,1
nuerk_2005_013,129,5,right,448,1
nuerk_2005_013,130,9,right,383,1
nuerk_2005_013,131,7,right,461,1
nuerk_2005_013,132,7,right,359,1
nuerk_2005_013,133,1,right,456,0
nuerk_2005_013,134,4,left,432,1
nuerk_2005_013,135,5,right,387,1
nuerk_2005_013,136,7,right,368,1
nuerk_2005_013,137,9,right,471,1
nuerk_2005_013,138,5,right,345,1
nuerk_2005_013,139,0,left,463,0
nuerk_2005_013,140,3,right,404,1
nuerk_2005_013,141,1,right,361,1
nuerk_2005_013,142,8,left,467,1
nuerk_2005_013,143,9,right,513,1
nuerk_2005_013,144,0,left,461,0
nuerk_2005_013,145,8,left,553,1
nuerk_2005_013,146,5,right,404,1
nuerk_2005_013,147,3,right,546,0
nuerk_2005_013,148,2,left,466,1
nuerk_2005_013,149,2,left,360,1
nuerk_2005_013,150,6,left,398,1
nuerk_2005_013,151,4,left,396,1
nuerk_2005_013,152,4,left,361,1
nuerk_2005_013,153,0,left,557,1
nuerk_2005_013,154,5,right,441,1
nuerk_2005_013,155,4,left,514,1
nuerk_2005_013,156,7,right,462,1
nuerk_2005_013,157,7,right,387,1
nuerk_2005_013,158,7,right,369,1
nuerk_2005_013,159,3,right,487,1
nuerk_2005_013,160,0,left,465,0
nuerk_2005_013,161,3,right,435,1
nuerk_2005_013,162,0,left,463,1
nuerk_2005_013,163,7,right,646,1
nuerk_2005_013,164,6,left,626,1
nuerk_2005_013,165,0,left,519,1
nuerk_2005_013,166,8,left,397,1
nuerk_2005_013,167,3,right,368,1
nuerk_2005_013,168,7,right,412,1
nuerk_2005_013,169,6,left,458,1
nuerk_2005_013,170,3,right,442,1
nuerk_2005_013,171,8,left,458,1
nuerk_2005_013,172,8,left,410,1
nuerk_2005_013,173,2,left,397,1
nuerk_2005_013,174,5,right,468,0
nuerk_2005_013,175,0,left,442,0
nuerk_2005_013,176,9,right,446,1
nuerk_2005_013,177,4,left,678,1
nuerk_2005_013,178,6,left,771,1
nuerk_2005_013,179,2,left,486,1
nuerk_2005_013,180,1,right,434,1
nuerk_2005_013,181,4,left,778,1
nuerk_2005_013,182,4,left,382,1
nuerk_2005_013,183,1,right,401,1
nuerk_2005_013,184,9,right,416,1
nuerk_2005_013,185,0,left,433,1
nuerk_2005_013,186,7,right,562,1
nuerk_2005_013,187,4,left,472,1
nuerk_2005_013,188,1,right,427,1
nuerk_2005_013,189,9,right,296,1
nuerk_2005_013,190,8,left,477,1
nuerk_2005_013,191,2,left,495,1
nuerk_2005_013,192,2,left,432,1
nuerk_2005_013,193,9,right,373,1
nuerk_2005_013,194,9,right,402,1
nuerk_2005_013,195,3,right,374,1
nuerk_2005_013,196,5,right,392,1
nuerk_2005_013,197,2,left,373,0
nuerk_2005_013,198,0,left,433,0
nuerk_2005_013,199,2,left,401,1
nuerk_2005_013,200,1,right,486,1
nuerk_2005_014,1,5,right,473,1
nuerk_2005_014,2,3,right,678,1
nuerk_2005_014,3,6,left,571,1
nuerk_2005_014,4,8,left,510,1
nuerk_2005_014,5,2,left,539,1
nuerk_2005_014,6,6,left,513,1
nuerk_2005_014,7,9,right,561,1
nuerk_2005_014,8,0,left,833,1
nuerk_2005_014,9,0,left,532,1
nuerk_2005_014,10,1,right,562,1
nuerk_2005_014,11,0,left,573,1
nuerk_2005_014,12,9,right,448,1
nuerk_2005_014,13,9,right,356,1
nuerk_2005_014,14,7,right,498,1
nuerk_2005_014,15,2,left,556,1
nuerk_2005_014,16,1,right,637,1
nuerk_2005_014,17,9,right,673,1
nuerk_2005_014,18,4,left,474,1
nuerk_2005_014,19,3,right,434,1
nuerk_2005_014,20,5,right,477,1
nuerk_2005_014,21,2,left,467,1
nuerk_2005_014,22,4,left,440,1
nuerk_2005_014,23,1,right,876,1
nuerk_2005_014,24,2,left,525,1
nuerk_2005_014,25,7,right,777,1
nuerk_2005_014,26,0,left,510,1
nuerk_2005_014,27,2,left,1007,1
nuerk_2005_014,28,0,left,539,1
nuerk_2005_014,29,4,left,440,1
nuerk_2005_014,30,1,right,531,1
nuerk_2005_014,31,7,right,416,1
nuerk_2005_014,32,1,right,426,1
nuerk_2005_014,33,9,right,426,1
nuerk_2005_014,34,7,right,436,1
nuerk_2005_014,35,8,left,506,1
nuerk_2005_014,36,6,left,447,1
nuerk_2005_014,37,6,left,366,1
nuerk_2005_014,38,2,left,405,1
nuerk_2005_014,39,4,left,359,1
nuerk_2005_014,40,6,left,368,1
nuerk_2005_014,41,2,left,396,1
nuerk_2005_014,42,2,left,403,1
nuerk_2005_014,43,9,right,576,1
nuerk_2005_014,44,8,left,728,1
nuerk_2005_014,45,2,left,569,1
nuerk_2005_014,46,4,left,456,1
nuerk_2005_014,47,0,left,590,1
nuerk_2005_014,48,9,right,459,1
nuerk_2005_014,49,1,right,530,1
nuerk_2005_014,50,5,right,401,1
nuerk_2005_014,51,8,left,316,0
nuerk_2005_014,52,4,left,447,1
nuerk_2005_014,53,9,right,441,1
nuerk_2005_014,54,9,right,490,1
nuerk_2005_014,55,5,right,558,1
nuerk_2005_014,56,7,right,424,1
nuerk_2005_014,57,3,right,506,1
nuerk_2005_014,58,3,right,407,1
nuerk_2005_014,59,0,left,728,1
nuerk_2005_014,60,7,right,471,1
nuerk_2005_014,61,6,left,818,1
nuerk_2005_014,62,7,right,538,1
nuerk_2005_014,63,8,left,627,1
nuerk_2005_014,64,5,right,586,1
nuerk_2005_014,65,6,left,496,1
nuerk_2005_014,66,4,left,490,1
nuerk_2005_014,67,3,right,444,1
nuerk_2005_014,68,3,right,331,1
nuerk_2005_014,69,5,right,418,1
nuerk_2005_014,70,7,right,428,1
nuerk_2005_014,71,5,right,471,1
nuerk_2005_014,72,0,left,675,1
nuerk_2005_014,73,3,right,708,1
nuerk_2005_014,74,1,right,438,1
nuerk_2005_014,75,3,right,356,1
nuerk_2005_014,76,5,right,421,1
nuerk_2005_014,77,2,left,473,1
nuerk_2005_014,78,8,left,488,1
nuerk_2005_014,79,6,left,382,1
nuerk_2005_014,80,7,right,458,1
nuerk_2005_014,81,7,right,385,1
nuerk_2005_014,82,3,right,406,1
nuerk_2005_014,83,3,right,398,1
nuerk_2005_014,84,8,left,584,1
nuerk_2005_014,85,6,left,430,1
nuerk_2005_014,86,0,left,587,1
nuerk_2005_014,87,1,right,425,0
nuerk_2005_014,88,5,right,535,1
nuerk_2005_014,89,0,left,460,1
nuerk_2005_014,90,1,right,618,1
nuerk_2005_014,91,4,left,454,1
nuerk_2005_014,92,6,left,586,1
nuerk_2005_014,93,8,left,475,1
nuerk_2005_014,94,5,right,436,1
nuerk_2005_014,95,1,right,464,1
nuerk_2005_014,96,4,left,485,1
nuerk_2005_014,97,8,left,533,1
nuerk_2005_014,98,4,left,502,1
nuerk_2005_014,99,9,right,503,1
nuerk_2005_014,100,8,left,907,1
nuerk_2005_014,101,2,right,459,1
nuerk_2005_014,102,0,right,501,1
nuerk_2005_014,103,6,right,346,1
nuerk_2005_014,104,8,right,364,1
nuerk_2005_014,105,8,right,362,1
nuerk_2005_014,106,8,right,359,1
nuerk_2005_014,107,3,left,457,1
nuerk_2005_014,108,7,left,512,1
nuerk_2005_014,109,3,left,444,1
nuerk_2005_014,110,7,left,398,1
nuerk_2005_014,111,2,right,457,1
nuerk_2005_014,112,5,left,408,0
nuerk_2005_014,113,9,left,600,1
nuerk_2005_014,114,9,left,414,1
nuerk_2005_014,115,2,right,448,1
nuerk_2005_014,116,6,right,444,1
nuerk_2005_014,117,2,right,419,1
nuerk_2005_014,118,8,right,429,1
nuerk_2005_014,119,9,left,443,1
nuerk_2005_014,120,5,left,590,1
nuerk_2005_014,121,9,left,426,1
nuerk_2005_014,122,6,right,858,1
nuerk_2005_014,123,1,left,500,1
nuerk_2005_014,124,0,right,588,1
nuerk_2005_014,125,3,left,600,1
nuerk_2005_014,126,2,right,459,1
nuerk_2005_014,127,7,left,500,1
nuerk_2005_014,128,1,left,514,1
nuerk_2005_014,129,4,right,635,1
nuerk_2005_014,130,4,right,398,1
nuerk_2005_014,131,1,left,469,1
nuerk_2005_014,132,6,right,472,1
nuerk_2005_014,133,3,left,432,1
nuerk_2005_014,134,7,left,587,1
nuerk_2005_014,135,4,right,426,1
nuerk_2005_014,136,0,right,485,1
nuerk_2005_014,137,4,right,407,1
nuerk_2005_014,138,7,left,411,1
nuerk_2005_014,139,5,left,890,1
nuerk_2005_014,140,7,left,442,1
nuerk_2005_014,141,2,right,505,1
nuerk_2005_014,142,7,left,505,1
nuerk_2005_014,143,5,left,544,1
nuerk_2005_014,144,6,right,462,1
nuerk_2005_014,145,6,right,432,1
nuerk_2005_014,146,9,left,432,1
nuerk_2005_014,147,8,right,644,1
nuerk_2005_014,148,3,left,620,1
nuerk_2005_014,149,1,left,481,1
nuerk_2005_014,150,0,right,589,1
nuerk_2005_014,151,0,right,400,1
nuerk_2005_014,152,8,right,446,1
nuerk_2005_014,153,0,right,512,1
nuerk_2005_014,154,0,right,476,1
nuerk_2005_014,155,7,left,622,1
nuerk_2005_014,156,9,left,531,1
nuerk_2005_014,157,4,right,633,1
nuerk_2005_014,158,7,left,605,1
nuerk_2005_014,159,6,right,443,1
nuerk_2005_014,160,9,left,476,1
nuerk_2005_014,161,0,right,671,1
nuerk_2005_014,162,9,left,790,1
nuerk_2005_014,163,2,right,533,1
nuerk_2005_014,164,0,right,490,1
nuerk_2005_014,165,1,left,530,1
nuerk_2005_014,166,4,right,603,1
nuerk_2005_014,167,8,right,636,1
nuerk_2005_014,168,5,left,434,1
nuerk_2005_014,169,1,left,691,1
nuerk_2005_014,170,5,left,529,1
nuerk_2005_014,171,4,right,458,1
nuerk_2005_014,172,4,right,395,1
nuerk_2005_014,173,3,left,446,1
nuerk_2005_014,174,7,left,482,1
nuerk_2005_014,175,2,right,477,1
nuerk_2005_014,176,2,right,388,1
nuerk_2005_014,177,1,left,442,1
nuerk_2005_014,178,5,left,529,1
nuerk_2005_014,179,0,right,612,1
nuerk_2005_014,180,8,right,490,1
nuerk_2005_014,181,9,left,500,1
nuerk_2005_014,182,3,left,584,0
nuerk_2005_014,183,3,left,464,0
nuerk_2005_014,184,1,left,736,1
nuerk_2005_014,185,6,right,652,1
nuerk_2005_014,186,4,right,772,0
nuerk_2005_014,187,4,right,677,1
nuerk_2005_014,188,8,right,415,1
nuerk_2005_014,189,6,right,390,1
nuerk_2005_014,190,3,left,515,1
nuerk_2005_014,191,1,left,490,1
nuerk_2005_014,192,3,left,427,1
nuerk_2005_014,193,1,left,411,1
nuerk_2005_014,194,2,right,531,1
nuerk_2005_014,195,6,right,470,1
nuerk_2005_014,196,5,left,646,1
nuerk_2005_014,197,9,left,462,1
nuerk_2005_014,198,5,left,444,1
nuerk_2005_014,199,5,left,387,1
nuerk_2005_014,200,8,right,412,1
nuerk_2005_015,1,5,right,459,1
nuerk_2005_015,2,5,right,387,1
nuerk_2005_015,3,0,left,410,1
nuerk_2005_015,4,1,right,473,1
nuerk_2005_015,5,5,right,536,1
nuerk_2005_015,6,7,right,378,1
nuerk_2005_015,7,0,left,382,1
nuerk_2005_015,8,8,left,404,0
nuerk_2005_015,9,9,right,455,1
nuerk_2005_015,10,9,right,376,1
nuerk_2005_015,11,8,left,454,1
nuerk_2005_015,12,8,left,374,1
nuerk_2005_015,13,1,right,405,1
nuerk_2005_015,14,0,left,405,1
nuerk_2005_015,15,1,right,477,1
nuerk_2005_015,16,3,right,587,1
nuerk_2005_015,17,4,left,483,1
nuerk_2005_015,18,7,right,447,1
nuerk_2005_015,19,4,left,425,1
nuerk_2005_015,20,8,left,413,1
nuerk_2005_015,21,6,left,359,1
nuerk_2005_015,22,6,left,383,1
nuerk_2005_015,23,4,left,344,1
nuerk_2005_015,24,2,left,360,1
nuerk_2005_015,25,7,right,430,1
nuerk_2005_015,26,3,right,401,1
nuerk_2005_015,27,9,right,576,1
nuerk_2005_015,28,7,right,393,1
nuerk_2005_015,29,8,left,461,1
nuerk_2005_015,30,5,right,402,1
nuerk_2005_015,31,9,right,519,1
nuerk_2005_015,32,7,right,339,1
nuerk_2005_015,33,1,right,459,1
nuerk_2005_015,34,6,left,370,1
nuerk_2005_015,35,9,right,401,1
nuerk_2005_015,36,0,left,503,0
nuerk_2005_015,37,3,right,511,1
nuerk_2005_015,38,9,right,403,1
nuerk_2005_015,39,6,left,361,0
nuerk_2005_015,40,1,right,547,1
nuerk_2005_015,41,0,left,411,1
nuerk_2005_015,42,8,left,457,1
nuerk_2005_015,43,5,right,384,1
nuerk_2005_015,44,4,left,490,1
nuerk_2005_015,45,3,right,371,1
nuerk_2005_015,46,6,left,416,1
nuerk_2005_015,47,1,right,396,1
nuerk_2005_015,48,0,left,376,1
nuerk_2005_015,49,5,right,440,1
nuerk_2005_015,50,2,left,399,1
nuerk_2005_015,51,4,left,426,1
nuerk_2005_015,52,7,right,397,1
nuerk_2005_015,53,7,right,341,1
nuerk_2005_015,54,5,right,432,1
nuerk_2005_015,55,9,right,401,0
nuerk_2005_015,56,7,right,453,1
nuerk_2005_015,57,1,right,416,0
nuerk_2005_015,58,2,left,400,1
nuerk_2005_015,59,9,right,385,1
nuerk_2005_015,60,3,right,378,1
nuerk_2005_015,61,2,left,412,1
nuerk_2005_015,62,5,right,375,1
nuerk_2005_015,63,3,right,387,1
nuerk_2005_015,64,8,left,439,1
nuerk_2005_015,65,1,right,357,1
nuerk_2005_015,66,1,right,384,1
nuerk_2005_015,67,1,right,392,1
nuerk_2005_015,68,5,right,389,1
nuerk_2005_015,69,7,right,387,1
nuerk_2005_015,70,2,left,526,1
nuerk_2005_015,71,9,right,465,1
nuerk_2005_015,72,4,left,419,1
nuerk_2005_015,73,0,left,426,1
nuerk_2005_015,74,5,right,440,1
nuerk_2005_015,75,3,right,445,1
nuerk_2005_015,76,3,right,391,1
nuerk_2005_015,77,6,left,458,1
nuerk_2005_015,78,2,left,426,1
nuerk_2005_015,79,4,left,372,1
nuerk_2005_015,80,2,left,371,1
nuerk_2005_015,81,8,left,400,1
nuerk_2005_015,82,8,left,341,1
nuerk_2005_015,83,6,left,370,1
nuerk_2005_015,84,6,left,342,1
nuerk_2005_015,85,4,left,357,1
nuerk_2005_015,86,3,right,368,1
nuerk_2005_015,87,2,left,397,1
nuerk_2005_015,88,0,left,425,1
nuerk_2005_015,89,4,left,375,1
nuerk_2005_015,90,8,left,374,1
nuerk_2005_015,91,4,left,346,1
nuerk_2005_015,92,6,left,347,1
nuerk_2005_015,93,0,left,362,1
nuerk_2005_015,94,2,left,371,1
nuerk_2005_015,95,6,left,372,1
nuerk_2005_015,96,9,right,470,1
nuerk_2005_015,97,0,left,385,1
nuerk_2005_015,98,3,right,421,1
nuerk_2005_015,99,2,left,414,1
nuerk_2005_015,100,7,right,376,1
nuerk_2005_015,101,6,right,474,0
nuerk_2005_015,102,2,right,472,1
nuerk_2005_015,103,0,right,446,0
nuerk_2005_015,104,1,left,407,1
nuerk_2005_015,105,3,left,396,1
nuerk_2005_015,106,2,right,407,1
nuerk_2005_015,107,2,right,370,1
nuerk_2005_015,108,5,left,457,1
nuerk_2005_015,109,8,right,384,1
nuerk_2005_015,110,7,left,404,1
nuerk_2005_015,111,6,right,531,1
nuerk_2005_015,112,3,left,401,1
nuerk_2005_015,113,9,left,387,0
nuerk_2005_015,114,5,left,485,1
nuerk_2005_015,115,4,right,449,1
nuerk_2005_015,116,0,right,444,1
nuerk_2005_015,117,2,right,420,1
nuerk_2005_015,118,8,right,416,1
nuerk_2005_015,119,4,right,414,1
nuerk_2005_015,120,0,right,391,1
nuerk_2005_015,121,4,right,384,1
nuerk_2005_015,122,4,right,348,1
nuerk_2005_015,123,7,left,398,1
nuerk_2005_015,124,3,left,368,1
nuerk_2005_015,125,1,left,382,1
nuerk_2005_015,126,9,left,360,0
nuerk_2005_015,127,1,left,396,1
nuerk_2005_015,128,0,right,398,1
nuerk_2005_015,129,7,left,428,0
nuerk_2005_015,130,9,left,376,0
nuerk_2005_015,131,0,right,435,0
nuerk_2005_015,132,9,left,478,0
nuerk_2005_015,133,3,left,500,1
nuerk_2005_015,134,4,right,387,1
nuerk_2005_015,135,8,right,394,1
nuerk_2005_015,136,3,left,376,1
nuerk_2005_015,137,7,left,475,1
nuerk_2005_015,138,5,left,449,1
nuerk_2005_015,139,1,left,383,1
nuerk_2005_015,140,0,right,506,1
nuerk_2005_015,141,2,right,379,1
nuerk_2005_015,142,3,left,400,1
nuerk_2005_015,143,9,left,385,0
nuerk_2005_015,144,4,right,499,1
nuerk_2005_015,145,5,left,456,1
nuerk_2005_015,146,6,right,398,1
nuerk_2005_015,147,2,right,573,1
nuerk_2005_015,148,9,left,519,1
nuerk_2005_015,149,7,left,456,1
nuerk_2005_015,150,5,left,405,1
nuerk_2005_015,151,5,left,390,1
nuerk_2005_015,152,4,right,488,1
nuerk_2005_015,153,8,right,443,1
nuerk_2005_015,154,0,right,479,1
nuerk_2005_015,155,2,right,429,1
nuerk_2005_015,156,8,right,386,1
nuerk_2005_015,157,6,right,423,1
nuerk_2005_015,158,7,left,359,1
nuerk_2005_015,159,9,left,528,1
nuerk_2005_015,160,6,right,471,1
nuerk_2005_015,161,3,left,401,1
nuerk_2005_015,162,8,right,432,1
nuerk_2005_015,163,0,right,462,1
nuerk_2005_015,164,3,left,387,1
nuerk_2005_015,165,6,right,471,1
nuerk_2005_015,166,6,right,388,1
nuerk_2005_015,167,2,right,429,1
nuerk_2005_015,168,2,right,401,1
nuerk_2005_015,169,1,left,388,1
nuerk_2005_015,170,7,left,463,1
nuerk_2005_015,171,1,left,373,1
nuerk_2005_015,172,9,left,489,1
nuerk_2005_015,173,8,right,488,1
nuerk_2005_015,174,6,right,428,1
nuerk_2005_015,175,1,left,427,1
nuerk_2005_015,176,3,left,397,1
nuerk_2005_015,177,8,right,397,1
nuerk_2005_015,178,8,right,357,1
nuerk_2005_015,179,1,left,368,1
nuerk_2005_015,180,1,left,368,1
nuerk_2005_015,181,9,left,370,0
nuerk_2005_015,182,0,right,484,1
nuerk_2005_015,183,5,left,404,1
nuerk_2005_015,184,9,left,417,1
nuerk_2005_015,185,4,right,479,1
nuerk_2005_015,186,0,right,401,1
nuerk_2005_015,187,5,left,430,1
nuerk_2005_015,188,6,right,416,1
nuerk_2005_015,189,5,left,439,1
nuerk_2005_015,190,3,left,355,1
nuerk_2005_015,191,6,right,420,1
nuerk_2005_015,192,4,right,489,1
nuerk_2005_015,193,5,left,414,1
nuerk_2005_015,194,1,left,404,1
nuerk_2005_015,195,4,right,461,1
nuerk_2005_015,196,8,right,433,1
nuerk_2005_015,197,2,right,463,1
nuerk_2005_015,198,7,left,432,1
nuerk_2005_015,199,7,left,386,1
nuerk_2005_015,200,7,left,376,1
nuerk_2005_016,1,1,left,399,1
nuerk_2005_016,2,9,left,584,1
nuerk_2005_016,3,1,left,388,1
nuerk_2005_016,4,9,left,367,1
nuerk_2005_016,5,1,left,380,1
nuerk_2005_016,6,5,left,402,0
nuerk_2005_016,7,6,right,431,1
nuerk_2005_016,8,9,left,428,1
nuerk_2005_016,9,5,left,454,1
nuerk_2005_016,10,7,left,446,1
nuerk_2005_016,11,8,right,406,1
nuerk_2005_016,12,8,right,382,1
nuerk_2005_016,13,1,left,401,1
nuerk_2005_016,14,3,left,485,1
nuerk_2005_016,15,5,left,419,1
nuerk_2005_016,16,9,left,586,0
nuerk_2005_016,17,7,left,439,1
nuerk_2005_016,18,0,right,483,0
nuerk_2005_016,19,4,right,533,1
nuerk_2005_016,20,2,right,390,1
nuerk_2005_016,21,1,left,442,1
nuerk_2005_016,22,6,right,460,1
nuerk_2005_016,23,9,left,658,1
nuerk_2005_016,24,9,left,378,1
nuerk_2005_016,25,9,left,410,1
nuerk_2005_016,26,8,right,501,1
nuerk_2005_016,27,9,left,631,1
nuerk_2005_016,28,3,left,457,1
nuerk_2005_016,29,2,right,585,1
nuerk_2005_016,30,4,right,449,1
nuerk_2005_016,31,6,right,459,1
nuerk_2005_016,32,9,left,788,1
nuerk_2005_016,33,8,right,485,1
nuerk_2005_016,34,6,right,463,1
nuerk_2005_016,35,8,right,447,1
nuerk_2005_016,36,0,right,394,1
nuerk_2005_016,37,6,right,464,1
nuerk_2005_016,38,4,right,548,1
nuerk_2005_016,39,5,left,487,0
nuerk_2005_016,40,7,left,418,1
nuerk_2005_016,41,5,left,514,0
nuerk_2005_016,42,3,left,465,1
nuerk_2005_016,43,1,left,388,1
nuerk_2005_016,44,6,right,528,1
nuerk_2005_016,45,2,right,530,1
nuerk_2005_016,46,3,left,441,1
nuerk_2005_016,47,2,right,428,0
nuerk_2005_016,48,6,right,498,1
nuerk_2005_016,49,2,right,386,1
nuerk_2005_016,50,5,left,438,1
nuerk_2005_016,51,5,left,512,1
nuerk_2005_016,52,0,right,628,1
nuerk_2005_016,53,8,right,473,1
nuerk_2005_016,54,4,right,543,1
nuerk_2005_016,55,4,right,461,1
nuerk_2005_016,56,7,left,501,1
nuerk_2005_016,57,9,left,515,1
nuerk_2005_016,58,5,left,518,1
nuerk_2005_016,59,7,left,524,1
nuerk_2005_016,60,6,right,550,1
nuerk_2005_016,61,1,left,500,1
nuerk_2005_016,62,4,right,674,1
nuerk_2005_016,63,2,right,506,1
nuerk_2005_016,64,7,left,419,1
nuerk_2005_016,65,3,left,498,1
nuerk_2005_016,66,8,right,442,1
nuerk_2005_016,67,1,left,440,1
nuerk_2005_016,68,5,left,494,1
nuerk_2005_016,69,0,right,477,1
nuerk_2005_016,70,7,left,426,1
nuerk_2005_016,71,4,right,435,1
nuerk_2005_016,72,0,right,522,1
nuerk_2005_016,73,2,right,474,1
nuerk_2005_016,74,3,left,403,1
nuerk_2005_016,75,7,left,469,1
nuerk_2005_016,76,4,right,501,1
nuerk_2005_016,77,3,left,414,1
nuerk_2005_016,78,0,right,390,1
nuerk_2005_016,79,6,right,473,1
nuerk_2005_016,80,0,right,577,1
nuerk_2005_016,81,8,right,413,1
nuerk_2005_016,82,1,left,473,1
nuerk_2005_016,83,6,right,418,1
nuerk_2005_016,84,2,right,457,1
nuerk_2005_016,85,4,right,455,1
nuerk_2005_016,86,8,right,636,0
nuerk_2005_016,87,1,left,731,1
nuerk_2005_016,88,7,left,644,1
nuerk_2005_016,89,4,right,506,1
nuerk_2005_016,90,3,left,579,1
nuerk_2005_016,91,7,left,410,1
nuerk_2005_016,92,3,left,427,1
nuerk_2005_016,93,0,right,426,1
nuerk_2005_016,94,2,right,826,1
nuerk_2005_016,95,3,left,463,1
nuerk_2005_016,96,5,left,401,1
nuerk_2005_016,97,2,right,357,1
nuerk_2005_016,98,0,right,558,1
nuerk_2005_016,99,8,right,485,1
nuerk_2005_016,100,0,right,459,1
nuerk_2005_016,101,0,left,390,1
nuerk_2005_016,102,3,right,343,1
nuerk_2005_016,103,4,left,359,1
nuerk_2005_016,104,1,right,326,1
nuerk_2005_016,105,2,left,352,1
nuerk_2005_016,106,0,left,400,1
nuerk_2005_016,107,4,left,414,1
nuerk_2005_016,108,2,left,401,1
nuerk_2005_016,109,7,right,430,1
nuerk_2005_016,110,1,right,358,1
nuerk_2005_016,111,7,right,341,1
nuerk_2005_016,112,2,left,327,1
nuerk_2005_016,113,4,left,439,1
nuerk_2005_016,114,1,right,586,1
nuerk_2005_016,115,9,right,595,1
nuerk_2005_016,116,3,right,391,1
nuerk_2005_016,117,0,left,371,1
nuerk_2005_016,118,1,right,387,1
nuerk_2005_016,119,2,left,424,1
nuerk_2005_016,120,2,left,503,1
nuerk_2005_016,121,3,right,389,1
nuerk_2005_016,122,6,left,411,1
nuerk_2005_016,123,4,left,399,1
nuerk_2005_016,124,6,left,469,1
nuerk_2005_016,125,5,right,529,1
nuerk_2005_016,126,9,right,631,1
nuerk_2005_016,127,9,right,446,1
nuerk_2005_016,128,6,left,366,1
